onset	duration	trial_number	trial_type	trial_type_coded	reaction_time	expected_response_coded	response	response_coded	accuracy	accuracy_scrambled	accuracy_task	rec_codes_during_enc	onset_probe	onset_noTriggerAdjust	onset_probe_noTriggerAdjust
0.0157450110000354	2	1	CONTROL	1	n/a	1	n/a	n/a	0	0	0	0	0.0488417070000651	0.0157450110000354	0.0488417070000651
4.51654517000043	2	2	CONTROL	1	n/a	2	n/a	n/a	0	0	0	0	4.53310094300014	4.51654517000043	4.53310094300014
11.5159047420002	4	3	TASK	2	n/a	1	n/a	n/a	0	0	0	16	12.5086785370004	11.5159047420002	12.5086785370004
19.524566174	2	4	CONTROL	1	n/a	1	n/a	n/a	0	0	0	0	19.5410929649997	19.524566174	19.5410929649997
22.056236118	4	5	TASK	2	n/a	2	n/a	n/a	0	0	0	28	23.0159766039997	22.056236118	23.0159766039997
38.5203852539998	4	6	TASK	2	n/a	1	n/a	n/a	0	0	0	1	39.5132171129999	38.5203852539998	39.5132171129999
49.5075352260001	2	7	CONTROL	1	n/a	2	n/a	n/a	0	0	0	0	49.5240915940003	49.5075352260001	49.5240915940003
56.5068690099997	2	8	CONTROL	1	n/a	2	n/a	n/a	0	0	0	0	56.5234307299997	56.5068690099997	56.5234307299997
66.0047637999996	4	9	TASK	2	n/a	2	n/a	n/a	0	0	0	33	67.014086481	66.0047637999996	67.014086481
70.5220900080003	2	10	CONTROL	1	n/a	2	n/a	n/a	0	0	0	0	70.5385776370003	70.5220900080003	70.5385776370003
76.0155962819999	4	11	TASK	2	n/a	2	n/a	n/a	0	0	0	17	77.0084217900003	76.0155962819999	77.0084217900003
81.509251642	4	12	TASK	2	n/a	2	n/a	n/a	0	0	0	11	82.5019749980002	81.509251642	82.5019749980002
92.5128772759999	4	13	TASK	2	n/a	1	n/a	n/a	0	0	0	8	93.5057071359997	92.5128772759999	93.5057071359997
98.0230145209998	2	14	CONTROL	1	n/a	1	n/a	n/a	0	0	0	0	98.0394820840002	98.0230145209998	98.0394820840002
104.509391708	4	15	TASK	2	n/a	1	n/a	n/a	0	0	0	5	105.502174771	104.509391708	105.502174771
109.010070716	2	16	CONTROL	1	n/a	1	n/a	n/a	0	0	0	0	109.026637355	109.010070716	109.026637355
112.021643215	2	17	CONTROL	1	n/a	2	n/a	n/a	0	0	0	0	112.038215142	112.021643215	112.038215142
118.508034383	4	18	TASK	2	n/a	2	n/a	n/a	0	0	0	25	119.517388162	118.508034383	119.517388162
125.010950233	2	19	CONTROL	1	n/a	1	n/a	n/a	0	0	0	0	125.027527171	125.010950233	125.027527171
129.015250735	4	20	TASK	2	n/a	1	n/a	n/a	0	0	0	21	130.008081148	129.015250735	130.008081148
135.005239177	4	21	TASK	2	n/a	2	n/a	n/a	0	0	0	35	136.014668518	135.005239177	136.014668518
151.006117937	4	22	TASK	2	n/a	1	n/a	n/a	0	0	0	4	152.01541794	151.006117937	152.01541794
155.523402792	4	23	TASK	2	n/a	2	n/a	n/a	0	0	0	34	156.516221938	155.523402792	156.516221938
161.016945474	2	24	CONTROL	1	n/a	2	n/a	n/a	0	0	0	0	161.033508995	161.016945474	161.033508995
165.021310785	2	25	CONTROL	1	n/a	1	n/a	n/a	0	0	0	0	165.037850787	165.021310785	165.037850787
174.502680175	2	26	CONTROL	1	n/a	2	n/a	n/a	0	0	0	0	174.519242138	174.502680175	174.519242138
179.516430389	2	27	CONTROL	1	n/a	2	n/a	n/a	0	0	0	0	179.533020716	179.516430389	179.533020716
182.048050527	4	28	TASK	2	n/a	2	n/a	n/a	0	0	0	15	183.007807396	182.048050527	183.007807396
189.01429229	2	29	CONTROL	1	n/a	2	n/a	n/a	0	0	0	0	189.030798998	189.01429229	189.030798998
193.018643589	4	30	TASK	2	n/a	2	n/a	n/a	0	0	0	36	194.011460951	193.018643589	194.011460951
202.020152451	4	31	TASK	2	n/a	2	n/a	n/a	0	0	0	14	203.012954465	202.020152451	203.012954465
209.515935604	4	32	TASK	2	n/a	1	n/a	n/a	0	0	0	77	210.508736839	209.515935604	210.508736839
216.018868408	2	33	CONTROL	1	n/a	2	n/a	n/a	0	0	0	0	216.035354107	216.018868408	216.035354107
220.519543679	4	34	TASK	2	n/a	1	n/a	n/a	0	0	0	87	221.512346325	220.519543679	221.512346325
226.013116028	4	35	TASK	2	n/a	1	n/a	n/a	0	0	0	73	227.006047008	226.013116028	227.006047008
240.011755568	4	36	TASK	2	n/a	1	n/a	n/a	0	0	0	94	241.004562451	240.011755568	241.004562451
254.010462848	4	37	TASK	2	n/a	1	n/a	n/a	0	0	0	64	255.00336578	254.010462848	255.00336578
261.522730816	4	38	TASK	2	n/a	2	n/a	n/a	0	0	0	69	262.515523635	261.522730816	262.515523635
280.005649382	2	39	CONTROL	1	n/a	1	n/a	n/a	0	0	0	0	280.022170663	280.005649382	280.022170663
283.017151965	4	40	TASK	2	n/a	2	n/a	n/a	0	0	0	97	284.009956366	283.017151965	284.009956366
292.01866461	4	41	TASK	2	n/a	1	n/a	n/a	0	0	0	63	293.011466112	292.01866461	293.011466112
297.517437119	2	42	CONTROL	1	n/a	1	n/a	n/a	0	0	0	0	297.528768509	297.517437119	297.528768509
305.504366022	2	43	CONTROL	1	n/a	1	n/a	n/a	0	0	0	0	305.520857704	305.504366022	305.520857704
316.508010834	4	44	TASK	2	n/a	1	n/a	n/a	0	0	0	70	317.517409783	316.508010834	317.517409783
324.003788374	4	45	TASK	2	n/a	1	n/a	n/a	0	0	0	104	325.013173813	324.003788374	325.013173813
331.019675449	2	46	CONTROL	1	n/a	1	n/a	n/a	0	0	0	0	331.036191345	331.019675449	331.036191345
336.513268164	4	47	TASK	2	n/a	2	n/a	n/a	0	0	0	45	337.506013741	336.513268164	337.506013741
347.0205453	4	48	TASK	2	n/a	2	n/a	n/a	0	0	0	83	348.013308681	347.0205453	348.013308681
358.024179123	2	49	CONTROL	1	n/a	1	n/a	n/a	0	0	0	0	358.040691565	358.024179123	358.040691565
363.004840981	2	50	CONTROL	1	n/a	2	n/a	n/a	0	0	0	0	363.021341005	363.004840981	363.021341005
370.517105643	2	51	CONTROL	1	n/a	2	n/a	n/a	0	0	0	0	370.533651654	370.517105643	370.533651654
376.507002507	4	52	TASK	2	n/a	2	n/a	n/a	0	0	0	93	377.516372609	376.507002507	377.516372609
383.506387295	4	53	TASK	2	n/a	1	n/a	n/a	0	0	0	46	384.51573299	383.506387295	384.51573299
390.50569659	4	54	TASK	2	n/a	2	n/a	n/a	0	0	0	96	391.515126761	390.50569659	391.515126761
405.017328302	4	55	TASK	2	n/a	2	n/a	n/a	0	0	0	49	406.010107802	405.017328302	406.010107802
412.016669423	4	56	TASK	2	n/a	2	n/a	n/a	0	0	0	103	413.009426134	412.016669423	413.009426134
418.519589866	4	57	TASK	2	n/a	2	n/a	n/a	0	0	0	66	419.512406373	418.519589866	419.512406373
429.506735328	4	58	TASK	2	n/a	2	n/a	n/a	0	0	0	48	430.516067343	429.506735328	430.516067343
0	n/a	0	n/a	0	0	0	n/a	0	0	0	0	99	0	0	0
0	n/a	0	n/a	0	0	0	n/a	0	0	0	0	98	0	0	0
0	n/a	0	n/a	0	0	0	n/a	0	0	0	0	62	0	0	0
0	n/a	0	n/a	0	0	0	n/a	0	0	0	0	0	0	0	0
0	n/a	0	n/a	0	0	0	n/a	0	0	0	0	102	0	0	0
0	n/a	0	n/a	0	0	0	n/a	0	0	0	0	82	0	0	0
