onset	duration	trial_number	trial_type	trial_type_coded	reaction_time	expected_response_coded	response	response_coded	accuracy	accuracy_scrambled	accuracy_task	rec_codes_during_enc	onset_probe	onset_noTriggerAdjust	onset_probe_noTriggerAdjust
0.0132714874666817	2	1	CONTROL	1	1.17483313523462	1	LEFT	5	1	1	0	0	0.0463426857654667	0.0132714874666817	0.0463426857654667
4.52274785936243	2	2	CONTROL	1	0.943965380818554	2	RIGHT	28	1	1	0	0	4.53943139718149	4.52274785936243	4.53943139718149
11.5192775630908	4	3	TASK	2	1.56485751590935	1	LEFT	5	1	0	1	16	12.5140260860908	11.5192775630908	12.5140260860908
19.5104503143893	2	4	CONTROL	1	0.816305941909377	1	LEFT	5	1	1	0	0	19.5270639260907	19.5104503143893	19.5270639260907
22.0471076170911	4	5	TASK	2	2.91181352361036	2	RIGHT	28	1	0	1	28	23.0086716593896	22.0471076170911	23.0086716593896
38.5100939550639	4	6	TASK	2	1.85141728261033	1	LEFT	5	1	0	1	1	39.5215623453896	38.5100939550639	39.5215623453896
49.5188200753896	2	7	CONTROL	1	1.03246103561059	2	RIGHT	28	1	1	0	0	49.5353777203895	49.5188200753896	49.5353777203895
56.5152876547918	2	8	CONTROL	1	0.726932977908746	2	RIGHT	28	1	1	0	0	56.5317618590911	56.5152876547918	56.5317618590911
66.0150657223894	4	9	TASK	2	2.65361650490922	2	RIGHT	28	1	0	1	33	67.0098930930908	66.0150657223894	67.0098930930908
70.5246409293895	2	10	CONTROL	1	1.02217239590937	2	RIGHT	28	1	1	0	0	70.5412244990907	70.5246409293895	70.5412244990907
76.0124269780908	4	11	TASK	2	2.3436054446106	2	RIGHT	28	1	0	1	17	77.0071119073896	76.0124269780908	77.0071119073896
81.5165675393628	4	12	TASK	2	3.17649863461065	2	RIGHT	28	1	0	1	11	82.5114081763895	81.5165675393628	82.5114081763895
92.5086541846881	4	13	TASK	2	0.967189091610635	1	LEFT	5	1	0	1	8	93.5199731873895	92.5086541846881	93.5199731873895
98.0129557493897	2	14	CONTROL	1	0.911750562909219	1	LEFT	5	1	1	0	0	98.0295247240911	98.0129557493897	98.0295247240911
104.511878841362	4	15	TASK	2	1.59900737223461	1	LEFT	5	1	0	1	5	105.506680590765	104.511878841362	105.506680590765
109.02156161539	2	16	CONTROL	1	0.897387971610442	1	LEFT	5	1	1	0	0	109.03808403639	109.02156161539	109.03808403639
112.022349660389	2	17	CONTROL	1	0.820223909909146	2	RIGHT	28	1	1	0	0	112.038969271091	112.022349660389	112.038969271091
118.50484679439	4	18	TASK	2	1.98461413993573	2	RIGHT	28	1	0	1	25	119.516147325064	118.50484679439	119.516147325064
125.020478929389	2	19	CONTROL	1	0.655801849909494	1	LEFT	5	1	1	0	0	125.037077919091	125.020478929389	125.037077919091
129.016046305389	4	20	TASK	2	1.74394491223484	1	LEFT	5	1	0	1	21	130.010730519765	129.016046305389	130.010730519765
135.017650351765	4	21	TASK	2	2.12488300161067	2	RIGHT	28	1	0	1	35	136.01246860339	135.017650351765	136.01246860339
151.016616478064	4	22	TASK	2	2.4853265488191	1	LEFT	5	1	0	1	4	152.011364371181	151.016616478064	152.011364371181
155.526141706467	4	23	TASK	2	2.06647374623481	2	RIGHT	28	1	0	1	34	156.520904003765	155.526141706467	156.520904003765
161.013809225765	2	24	CONTROL	1	0.678786450234838	2	RIGHT	28	1	1	0	0	161.030444828765	161.013809225765	161.030444828765
165.009455229766	2	25	CONTROL	1	0.807342306610281	1	LEFT	5	1	1	0	0	165.02606785039	165.009455229766	165.02606785039
174.50937879039	2	26	CONTROL	1	0.62602865023473	2	RIGHT	28	1	1	0	0	174.525936030765	174.50937879039	174.525936030765
179.51631181939	2	27	CONTROL	1	0.795116901908841	2	RIGHT	28	1	1	0	0	179.532952764091	179.51631181939	179.532952764091
182.052953033091	4	28	TASK	2	1.93508619061049	2	RIGHT	28	1	0	1	15	183.01449808639	182.052953033091	183.01449808639
189.016229683091	2	29	CONTROL	1	0.702653807610659	2	RIGHT	28	1	1	0	0	189.03282026539	189.016229683091	189.03282026539
193.011659862766	4	30	TASK	2	1.68524298193597	2	RIGHT	28	1	0	1	36	194.006442306064	193.011659862766	194.006442306064
202.01428871539	4	31	TASK	2	2.42233405490924	2	RIGHT	28	1	0	1	14	203.009029496091	202.01428871539	203.009029496091
209.524584023765	4	32	TASK	2	2.13503022361056	1	LEFT	5	1	0	1	77	210.51940415139	209.524584023765	210.51940415139
216.00711142939	2	33	CONTROL	1	0.670542348908839	2	RIGHT	28	1	1	0	0	216.023754229091	216.00711142939	216.023754229091
220.516614293064	4	34	TASK	2	1.86162666490918	1	LEFT	5	1	0	1	87	221.511448385091	220.516614293064	221.511448385091
226.004427333091	4	35	TASK	2	2.47306637890915	1	LEFT	5	1	0	1	73	227.015725000091	226.004427333091	227.015725000091
240.013750307362	4	36	TASK	2	2.2686758269092	1	LEFT	5	1	0	1	94	241.008578229091	240.013750307362	241.008578229091
254.023286155091	4	37	TASK	2	1.90160651490942	1	LEFT	5	1	0	1	64	255.017956381091	254.023286155091	255.017956381091
261.516930905064	4	38	TASK	2	2.6023134462348	2	RIGHT	28	1	0	1	69	262.511727310765	261.516930905064	262.511727310765
280.019359556064	2	39	CONTROL	1	0.844341188117141	1	LEFT	5	1	1	0	0	280.036028538883	280.019359556064	280.036028538883
283.020139728064	4	40	TASK	2	2.26424336193577	2	RIGHT	28	1	0	1	97	284.014910807064	283.020139728064	284.014910807064
292.022761955389	4	41	TASK	2	2.66868082761039	1	LEFT	5	1	0	1	63	293.01750185539	292.022761955389	293.01750185539
297.526921663064	2	42	CONTROL	1	0.682288869234981	1	LEFT	5	1	1	0	0	297.543561354765	297.526921663064	297.543561354765
305.518206827389	2	43	CONTROL	1	0.625118553909033	1	LEFT	5	1	1	0	0	305.534873678091	305.518206827389	305.534873678091
316.51021990239	4	44	TASK	2	2.29889903711728	1	LEFT	5	1	0	1	70	317.504944699883	316.51021990239	317.504944699883
324.020527985766	4	45	TASK	2	2.33601585693577	1	LEFT	5	1	0	1	104	325.015325631064	324.020527985766	325.015325631064
331.016923726064	2	46	CONTROL	1	1.06420244963738	1	LEFT	5	1	1	0	0	331.033492324363	331.016923726064	331.033492324363
336.521252683765	4	47	TASK	2	2.54062607293645	2	RIGHT	28	1	0	1	45	337.515995520064	336.521252683765	337.515995520064
347.015840560064	4	48	TASK	2	1.79356720290889	2	RIGHT	28	1	0	1	83	348.010768903091	347.015840560064	348.010768903091
358.007838231064	2	49	CONTROL	1	0.776500009234496	1	LEFT	5	1	1	0	0	358.024423828766	358.007838231064	358.024423828766
363.014756693362	2	50	CONTROL	1	0.689766324637731	2	RIGHT	28	1	1	0	0	363.031395122362	363.014756693362	363.031395122362
370.508619029064	2	51	CONTROL	1	0.970505047624101	2	RIGHT	28	1	1	0	0	370.525273428376	370.508619029064	370.525273428376
376.526907103064	4	52	TASK	2	2.49040903563719	2	RIGHT	28	1	0	1	93	377.521567730363	376.526907103064	377.521567730363
383.506666258064	4	53	TASK	2	2.52143684523435	1	LEFT	5	1	0	1	46	384.518023033766	383.506666258064	384.518023033766
390.519693987766	4	54	TASK	2	1.51186208163745	2	RIGHT	28	1	0	1	96	391.514400529363	390.519693987766	391.514400529363
405.009920810765	4	55	TASK	2	2.8452248429362	2	RIGHT	28	1	0	1	49	406.021277679064	405.009920810765	406.021277679064
412.022900933064	4	56	TASK	2	2.50141916193616	2	RIGHT	28	1	0	1	103	413.017668362064	412.022900933064	413.017668362064
418.505472822376	4	57	TASK	2	2.59244482093618	2	RIGHT	28	1	0	1	66	419.516714573064	418.505472822376	419.516714573064
429.513927995363	4	58	TASK	2	2.49716505823471	2	RIGHT	28	1	0	1	48	430.508695624766	429.513927995363	430.508695624766
443.523413055765	4	59	TASK	2	2.34026997593628	2	RIGHT	28	1	0	1	99	444.518121171064	443.523413055765	444.518121171064
448.032958641765	4	60	TASK	2	2.67596669223485	1	LEFT	5	1	0	1	98	449.011177286765	448.032958641765	449.011177286765
453.023340473467	4	61	TASK	2	2.88408051793613	2	RIGHT	28	1	0	1	62	454.017998417064	453.023340473467	454.017998417064
459.522275588362	2	62	CONTROL	1	0.779976307909237	1	LEFT	5	1	1	0	0	459.539007378091	459.522275588362	459.539007378091
465.026701574389	4	63	TASK	2	1.66787336861034	1	LEFT	5	1	0	1	102	466.02147297639	465.026701574389	466.02147297639
473.515213037064	4	64	TASK	2	2.19579659290912	2	RIGHT	28	1	0	1	82	474.510069542091	473.515213037064	474.510069542091
