onset	duration	trial_number	trial_type	trial_type_coded	reaction_time	expected_response_coded	response	response_coded	accuracy	accuracy_scrambled	accuracy_task	rec_codes_during_enc	onset_probe	onset_noTriggerAdjust	onset_probe_noTriggerAdjust
0.0133595958732258	2	1	CONTROL	1	0.855821765131623	1	LEFT	5	1	1	0	0	0.0464918688680882	0.0133595958732258	0.0464918688680882
4.52292079987728	2	2	CONTROL	1	0.651368780122539	2	RIGHT	28	1	1	0	0	4.53949068487736	4.52292079987728	4.53949068487736
11.5193217648775	4	3	TASK	2	0.961507255131437	1	LEFT	5	1	0	1	16	12.5140341348683	11.5193217648775	12.5140341348683
19.5105167678776	2	4	CONTROL	1	0.823547734126805	1	LEFT	5	1	1	0	0	19.5270958898732	19.5105167678776	19.5270958898732
22.0471088349104	4	5	TASK	2	0.919253347032736	2	RIGHT	28	1	0	1	28	23.008778319967	22.0471088349104	23.008778319967
38.5268575758732	4	6	TASK	2	0.804281400070522	1	LEFT	5	1	0	1	1	39.5051020619294	38.5268575758732	39.5051020619294
49.5188192448732	2	7	CONTROL	1	0.710321016126727	2	RIGHT	28	1	1	0	0	49.5354773688732	49.5188192448732	49.5354773688732
56.515253569868	2	8	CONTROL	1	0.599237551065926	2	RIGHT	28	1	1	0	0	56.5319371729338	56.515253569868	56.5319371729338
66.0151255238775	4	9	TASK	2	0.760646786037796	2	RIGHT	28	1	0	1	33	67.0099753279619	66.0151255238775	67.0099753279619
70.5246977928732	2	10	CONTROL	1	0.740362787122649	2	RIGHT	28	1	1	0	0	70.5412939488774	70.5246977928732	70.5412939488774
76.0123836848775	4	11	TASK	2	0.664711496037853	2	RIGHT	28	1	0	1	17	77.007258638962	76.0123836848775	77.007258638962
81.5167280928681	4	12	TASK	2	0.70036992412679	2	RIGHT	28	1	0	1	11	82.5114935908732	81.5167280928681	82.5114935908732
92.5252919228774	4	13	TASK	2	0.768304675122636	1	LEFT	5	1	0	1	8	93.5200631108773	92.5252919228774	93.5200631108773
98.0296375908774	2	14	CONTROL	1	0.746449089122962	1	LEFT	5	1	1	0	0	98.0461375488771	98.0296375908774	98.0461375488771
104.512086225873	4	15	TASK	2	0.696752542037757	1	LEFT	5	1	0	1	5	105.506932879962	104.512086225873	105.506932879962
109.021609031873	2	16	CONTROL	1	0.695806211131639	1	LEFT	5	1	1	0	0	109.038137159868	109.021609031873	109.038137159868
112.022475497873	2	17	CONTROL	1	1.18377151212644	2	RIGHT	28	1	1	0	0	112.039055996873	112.022475497873	112.039055996873
118.504960818967	4	18	TASK	2	0.602477802122394	2	RIGHT	28	1	0	1	25	119.516286164877	118.504960818967	119.516286164877
125.020521613877	2	19	CONTROL	1	0.626303959122652	1	LEFT	5	1	1	0	0	125.037090345877	125.020521613877	125.037090345877
129.016145177877	4	20	TASK	2	0.702929856131959	1	LEFT	5	1	0	1	21	130.010809164868	129.016145177877	130.010809164868
135.017815211882	4	21	TASK	2	0.808537852126847	2	RIGHT	28	1	0	1	35	136.012531025873	135.017815211882	136.012531025873
151.016730116868	4	22	TASK	2	0.7024929830377	1	LEFT	5	1	0	1	4	152.011525128962	151.016730116868	152.011525128962
155.526233572873	4	23	TASK	2	0.68573295611759	2	RIGHT	28	1	0	1	34	156.521055184882	155.526233572873	156.521055184882
161.013940962877	2	24	CONTROL	1	0.688415766122489	2	RIGHT	28	1	1	0	0	161.030534210877	161.013940962877	161.030534210877
165.026109537873	2	25	CONTROL	1	0.626993471126752	1	LEFT	5	1	1	0	0	165.042737655873	165.026109537873	165.042737655873
174.526044033877	2	26	CONTROL	1	0.707456389089202	2	RIGHT	28	1	1	0	0	174.542623093911	174.526044033877	174.542623093911
179.516355630873	2	27	CONTROL	1	0.552931873126909	2	RIGHT	28	1	1	0	0	179.532922223873	179.516355630873	179.532922223873
182.053001297877	4	28	TASK	2	0.653254968122383	2	RIGHT	28	1	0	1	15	183.014537153877	182.053001297877	183.014537153877
189.016275746877	2	29	CONTROL	1	0.576515545127222	2	RIGHT	28	1	1	0	0	189.032806251873	189.016275746877	189.032806251873
193.011818227873	4	30	TASK	2	0.55895486303325	2	RIGHT	28	1	0	1	36	194.006661770967	193.011818227873	194.006661770967
202.014351555878	4	31	TASK	2	0.720463071126687	2	RIGHT	28	1	0	1	14	203.009077450873	202.014351555878	203.009077450873
209.508149219873	4	32	TASK	2	0.704809314117938	1	LEFT	5	1	0	1	77	210.519480997882	209.508149219873	210.519480997882
216.007235067882	2	33	CONTROL	1	0.701091739122603	2	RIGHT	28	1	1	0	0	216.023725898877	216.007235067882	216.023725898877
220.516757656873	4	34	TASK	2	0.674408569126626	1	LEFT	5	1	0	1	87	221.511515491873	220.516757656873	221.511515491873
226.020990649877	4	35	TASK	2	0.633507514122357	1	LEFT	5	1	0	1	73	227.015824273878	226.020990649877	227.015824273878
240.013860956873	4	36	TASK	2	0.618255995037998	1	LEFT	5	1	0	1	94	241.008691407962	240.013860956873	241.008691407962
254.006744785891	4	37	TASK	2	0.645083922122467	1	LEFT	5	1	0	1	64	255.018081421877	254.006744785891	255.018081421877
261.517082399873	4	38	TASK	2	0.936256219117695	2	RIGHT	28	1	0	1	69	262.511877410882	261.517082399873	262.511877410882
280.019475844877	2	39	CONTROL	1	0.655709114065758	1	LEFT	5	1	1	0	0	280.036151637934	280.019475844877	280.036151637934
283.020352812873	4	40	TASK	2	0.572975721127023	2	RIGHT	28	1	0	1	97	284.015043185873	283.020352812873	284.015043185873
292.022776814877	4	41	TASK	2	0.596373397122534	1	LEFT	5	1	0	1	63	293.017612080877	292.022776814877	293.017612080877
297.527056429873	2	42	CONTROL	1	0.661256203122321	1	LEFT	5	1	1	0	0	297.543661989877	297.527056429873	297.543661989877
305.518330205882	2	43	CONTROL	1	0.576428616070643	1	LEFT	5	1	1	0	0	305.534902600929	305.518330205882	305.534902600929
316.526839887873	4	44	TASK	2	0.684147681028207	1	LEFT	5	1	0	1	70	317.505181403972	316.526839887873	317.505181403972
324.020745554873	4	45	TASK	2	0.65727616803315	1	LEFT	5	1	0	1	104	325.015527895967	324.020745554873	325.015527895967
331.017090473873	2	46	CONTROL	1	0.596134514037658	1	LEFT	5	1	1	0	0	331.033754477962	331.017090473873	331.033754477962
336.521378347873	4	47	TASK	2	0.65893783512729	2	RIGHT	28	1	0	1	45	337.516154837873	336.521378347873	337.516154837873
347.016031154882	4	48	TASK	2	0.604985323037909	2	RIGHT	28	1	0	1	83	348.010829377962	347.016031154882	348.010829377962
358.024567005873	2	49	CONTROL	1	0.835676996066013	1	LEFT	5	1	1	0	0	358.041278988934	358.024567005873	358.041278988934
363.014981618877	2	50	CONTROL	1	0.702776677122529	2	RIGHT	28	1	1	0	0	363.031533217877	363.014981618877	363.031533217877
370.508756441915	2	51	CONTROL	1	0.58116022913191	2	RIGHT	28	1	1	0	0	370.525270649868	370.508756441915	370.525270649868
376.526945197873	4	52	TASK	2	0.495041128070625	2	RIGHT	28	1	0	1	93	377.505233767929	376.526945197873	377.505233767929
383.506831425877	4	53	TASK	2	0.671262318126992	1	LEFT	5	1	0	1	46	384.518201040873	383.506831425877	384.518201040873
390.519866249877	4	54	TASK	2	0.471029197126882	2	RIGHT	28	1	0	1	96	391.514602169873	390.519866249877	391.514602169873
405.010023501873	4	55	TASK	2	0.693031104080092	2	RIGHT	28	1	0	1	49	406.00481572592	405.010023501873	406.00481572592
412.006484349877	4	56	TASK	2	0.689867231131757	2	RIGHT	28	1	0	1	103	413.017771477868	412.006484349877	413.017771477868
418.522127403877	4	57	TASK	2	0.530132789075196	2	RIGHT	28	1	0	1	66	419.516860152925	418.522127403877	419.516860152925
429.514061632873	4	58	TASK	2	0.474469671122733	2	RIGHT	28	1	0	1	48	430.508911154877	429.514061632873	430.508911154877
443.523549979877	4	59	TASK	2	0.470616776131465	2	RIGHT	28	1	0	1	99	444.518263021868	443.523549979877	444.518263021868
448.033078835873	4	60	TASK	2	0.730970503126628	1	LEFT	5	1	0	1	98	449.011275286873	448.033078835873	449.011275286873
453.023458330873	4	61	TASK	2	0.84908792212218	2	RIGHT	28	1	0	1	62	454.018189349878	453.023458330873	454.018189349878
459.505908979868	2	62	CONTROL	1	0.760740730122507	1	LEFT	5	1	1	0	0	459.522503765877	459.505908979868	459.522503765877
465.010222542962	4	63	TASK	2	0.601842389037756	1	LEFT	5	1	0	1	102	466.004977247962	465.010222542962	466.004977247962
473.515337168873	4	64	TASK	2	0.596658581117481	2	RIGHT	28	1	0	1	82	474.510105622882	473.515337168873	474.510105622882
