onset	duration	trial_number	trial_type	reaction_time	response_coded	response_str	pairno_rec	enc_codes_during_rec	onset_noTriggerAdjust
0.0786545086129991	3	1	CORRECTLY	1.20709319338675	5	SURE_CORRECT	3	6	0.0786545086129991
4.505357367123	3	2	INCORRECTLY	1.63596244287692	21	SURE_INCORRECT	55	0	4.505357367123
13.010432860613	2	3	CONTROL	0.988768482386604	5	n/a	1000	0	13.010432860613
16.077637159613	3	4	CORRECTLY	1.49038990338704	21	SURE_INCORRECT	12	0	16.077637159613
21.018275797368	3	5	CORRECTLY	2.38498125363185	21	SURE_INCORRECT	8	15	21.018275797368
25.0635107128583	2	6	CONTROL	1.02059567114156	28	n/a	1000	0	25.0635107128583
29.009381837368	3	7	INCORRECTLY	1.95191565063169	5	SURE_CORRECT	59	0	29.009381837368
36.0223858536128	3	8	CORRECTLY	2.36958089838708	28	MAYBE_CORRECT	7	13	36.0223858536128
40.5153995196129	3	9	INCORRECTLY	3.37962603138703	28	MAYBE_CORRECT	68	0	40.5153995196129
47.0143683643682	3	10	INCORRECTLY	1.57469956663181	5	SURE_CORRECT	64	0	47.0143683643682
51.0763456989389	3	11	CORRECTLY	1.9729024840608	21	SURE_INCORRECT	6	12	51.0763456989389
56.0169570016128	2	12	CONTROL	0.79613170538687	5	n/a	1000	0	56.0169570016128
61.5211818566127	3	13	INCORRECTLY	2.4562314553873	21	SURE_INCORRECT	78	0	61.5211818566127
65.566569089613	3	14	CORRECTLY	2.91141969438695	10	MAYBE_INCORRECT	16	31	65.566569089613
69.578692831858	3	15	CORRECTLY	2.65315139814174	5	SURE_CORRECT	14	0	69.578692831858
75.0167394976738	3	16	CORRECTLY	1.73366771132578	5	SURE_CORRECT	1	3	75.0167394976738
79.0786162946129	3	17	CORRECTLY	1.85369530938715	5	SURE_CORRECT	5	11	79.0786162946129
83.521856892613	3	18	INCORRECTLY	1.60588941738706	21	SURE_INCORRECT	51	0	83.521856892613
90.0208935443679	3	19	INCORRECTLY	3.08477726963201	5	SURE_CORRECT	47	0	90.0208935443679
94.0661596458581	3	20	INCORRECTLY	2.31245604014157	5	SURE_CORRECT	66	0	94.0661596458581
99.0233579686128	3	21	CORRECTLY	2.84078135238724	21	SURE_INCORRECT	10	20	99.0233579686128
103.068675666858	3	22	INCORRECTLY	2.11197164614214	21	SURE_INCORRECT	48	0	103.068675666858
107.064296766368	3	23	INCORRECTLY	1.43154900563195	5	SURE_CORRECT	52	0	107.064296766368
115.005764730123	3	24	INCORRECTLY	2.59732425787706	28	MAYBE_CORRECT	45	0	115.005764730123
119.515221555613	3	25	CORRECTLY	2.40284251938692	21	SURE_INCORRECT	9	18	119.515221555613
125.516907145368	3	26	INCORRECTLY	1.26673773563152	5	SURE_CORRECT	42	0	125.516907145368
131.021168274613	3	27	INCORRECTLY	1.92271482238675	10	MAYBE_INCORRECT	80	0	131.021168274613
137.006331375368	3	28	CORRECTLY	2.13113024063159	5	SURE_CORRECT	2	5	137.006331375368
142.013274664368	2	29	CONTROL	1.52409049763173	10	n/a	1000	0	142.013274664368
145.063741325858	3	30	INCORRECTLY	1.72226258914179	5	SURE_CORRECT	56	0	145.063741325858
150.518380242368	3	31	INCORRECTLY	1.91109666763168	21	SURE_INCORRECT	43	0	150.518380242368
155.011382137408	3	32	INCORRECTLY	1.95912260259138	5	SURE_CORRECT	58	0	155.011382137408
159.520880985613	3	33	CORRECTLY	1.99434393838692	21	SURE_INCORRECT	4	9	159.520880985613
167.014705798368	3	34	CORRECTLY	2.74639828863155	28	MAYBE_CORRECT	13	0	167.014705798368
173.513713790368	3	35	CORRECTLY	2.92397469363186	28	MAYBE_CORRECT	11	21	173.513713790368
178.520648176123	3	36	CORRECTLY	3.20390989687712	21	SURE_INCORRECT	15	30	178.520648176123
182.565936568613	3	37	INCORRECTLY	1.17321243538709	21	SURE_INCORRECT	46	0	182.565936568613
188.517906930368	2	38	CONTROL	1.31322716463183	28	n/a	1000	0	188.517906930368
193.508245013123	2	39	CONTROL	0.902294188876567	28	n/a	1000	0	193.508245013123
198.017759123368	3	40	INCORRECTLY	1.92440638663174	5	SURE_CORRECT	62	0	198.017759123368
203.024722729613	2	41	CONTROL	1.10228620938733	10	n/a	1000	0	203.024722729613
207.517632049123	2	42	CONTROL	1.194854263877	21	n/a	1000	0	207.517632049123
211.015880862613	2	43	CONTROL	1.1962322553868	28	n/a	1000	0	211.015880862613
218.526219268613	3	44	INCORRECTLY	1.93570929738689	5	SURE_CORRECT	49	0	218.526219268613
224.013982632164	3	45	CORRECTLY	2.0369532338359	21	SURE_INCORRECT	27	47	224.013982632164
229.518213673613	3	46	CORRECTLY	3.37024678338685	28	MAYBE_CORRECT	30	53	229.518213673613
235.006015539164	3	47	INCORRECTLY	1.50154803483611	21	SURE_INCORRECT	75	0	235.006015539164
244.505892154368	3	48	CORRECTLY	1.53501860363167	5	SURE_CORRECT	35	58	244.505892154368
252.016237146613	3	49	CORRECTLY	1.49900150838675	5	SURE_CORRECT	32	55	252.016237146613
256.061534395613	2	50	CONTROL	1.25392076838716	21	n/a	1000	0	256.061534395613
259.062522045469	3	51	INCORRECTLY	1.85191007053027	28	MAYBE_CORRECT	70	0	259.062522045469
267.020386085368	2	52	CONTROL	1.30167605863198	21	n/a	1000	0	267.020386085368
272.524653724368	3	53	INCORRECTLY	0.00865567763139552	21	SURE_INCORRECT	79	0	272.524653724368
277.515060475368	3	54	INCORRECTLY	0.00862684963158244	21	SURE_INCORRECT	65	0	277.515060475368
282.007949612368	2	55	CONTROL	0.00862824163186815	21	n/a	1000	0	282.007949612368
285.075135170613	3	56	INCORRECTLY	0.008718075386696	21	SURE_INCORRECT	53	0	285.075135170613
292.021790612858	3	57	INCORRECTLY	0.0088772471417542	21	SURE_INCORRECT	76	0	292.021790612858
296.067154701368	2	58	CONTROL	0.972314383631783	5	n/a	1000	0	296.067154701368
300.012986636368	3	59	INCORRECTLY	1.81695675463152	21	SURE_INCORRECT	41	0	300.012986636368
305.517288323368	2	60	CONTROL	1.50067411863165	10	n/a	1000	0	305.517288323368
310.010236071613	3	61	INCORRECTLY	2.15811809538718	21	SURE_INCORRECT	63	0	310.010236071613
318.018024202368	3	62	CORRECTLY	2.01723370663194	5	SURE_CORRECT	38	61	318.018024202368
325.014390400858	3	63	CORRECTLY	1.82787166314165	5	SURE_CORRECT	24	41	325.014390400858
330.004834869959	3	64	CORRECTLY	1.2631654560405	5	SURE_CORRECT	21	37	330.004834869959
335.509070350613	3	65	INCORRECTLY	2.28993403838695	21	SURE_INCORRECT	67	0	335.509070350613
341.510739476613	3	66	CORRECTLY	3.18240072438721	5	SURE_CORRECT	34	57	341.510739476613
346.517657074368	3	67	INCORRECTLY	1.85035334463146	10	MAYBE_INCORRECT	60	0	346.517657074368
351.010677886919	2	68	CONTROL	1.27734503908141	21	n/a	1000	0	351.010677886919
355.022743257613	3	69	CORRECTLY	1.77129491638698	21	SURE_INCORRECT	22	38	355.022743257613
362.516633006123	3	70	CORRECTLY	1.58132664687673	21	SURE_INCORRECT	25	44	362.516633006123
367.009577616368	3	71	INCORRECTLY	1.31148066563173	5	SURE_CORRECT	71	0	367.009577616368
371.071408883858	3	72	INCORRECTLY	1.56072796814169	21	SURE_INCORRECT	57	0	371.071408883858
375.514725436613	3	73	CORRECTLY	2.05092028238687	21	SURE_INCORRECT	19	35	375.514725436613
381.018942910858	2	74	CONTROL	2.01779313814177	28	n/a	1000	0	381.018942910858
386.009320927368	3	75	INCORRECTLY	1.43990131063174	21	SURE_INCORRECT	74	0	386.009320927368
391.513572850613	2	76	CONTROL	1.48881229538665	10	n/a	1000	0	391.513572850613
395.509231684613	3	77	CORRECTLY	2.40535604438674	5	SURE_CORRECT	17	32	395.509231684613
401.013564079164	2	78	CONTROL	0.912170373836034	5	n/a	1000	0	401.013564079164
405.009025954858	3	79	INCORRECTLY	1.73608553814211	21	SURE_INCORRECT	77	0	405.009025954858
409.518625780613	2	80	CONTROL	1.27758560238681	10	n/a	1000	0	409.518625780613
415.520258483368	3	81	INCORRECTLY	1.77031081763198	5	SURE_CORRECT	44	0	415.520258483368
421.505455958673	3	82	CORRECTLY	1.09909450932628	21	SURE_INCORRECT	40	64	421.505455958673
426.014991004164	3	83	CORRECTLY	1.72129655683602	21	SURE_INCORRECT	28	48	426.014991004164
430.060287635368	3	84	INCORRECTLY	2.41625033263244	28	MAYBE_CORRECT	50	0	430.060287635368
437.023555426613	3	85	INCORRECTLY	1.94729786438711	21	SURE_INCORRECT	72	0	437.023555426613
443.50604460394	3	86	INCORRECTLY	2.72006352106018	21	SURE_INCORRECT	69	0	443.50604460394
447.584512026124	3	87	CORRECTLY	2.95888282387568	28	MAYBE_CORRECT	18	34	447.584512026124
452.525035081613	2	88	CONTROL	n/a	n/a	n/a	1000	0	452.525035081613
455.575684195368	2	89	CONTROL	n/a	n/a	n/a	1000	0	455.575684195368
462.008368999613	3	90	INCORRECTLY	1.82970614538681	21	SURE_INCORRECT	61	0	462.008368999613
466.070295177368	2	91	CONTROL	1.55991367463139	21	n/a	1000	0	466.070295177368
470.513481013613	3	92	INCORRECTLY	1.85241297838638	5	SURE_CORRECT	73	0	470.513481013613
474.558832049674	3	93	CORRECTLY	3.0531689953259	28	MAYBE_CORRECT	29	52	474.558832049674
479.516049771368	3	94	CORRECTLY	n/a	n/a	n/a	20	36	479.516049771368
484.522912360613	2	95	CONTROL	1.20673721538697	10	n/a	1000	0	484.522912360613
489.015906291613	3	96	CORRECTLY	2.02866074738722	5	SURE_CORRECT	31	54	489.015906291613
493.061247727613	3	97	CORRECTLY	2.08604725038731	21	SURE_INCORRECT	23	40	493.061247727613
498.018394176857	3	98	CORRECTLY	2.80165534014213	21	SURE_INCORRECT	37	60	498.018394176857
502.511436813939	3	99	CORRECTLY	0.00702015606020723	21	SURE_INCORRECT	36	59	502.511436813939
506.556756257959	2	100	CONTROL	0.00671742004124098	21	n/a	1000	0	506.556756257959
510.021744120613	3	101	INCORRECTLY	1.98252615538695	21	SURE_INCORRECT	54	0	510.021744120613
514.067107890123	3	102	CORRECTLY	2.18024409087684	28	MAYBE_CORRECT	39	63	514.067107890123
518.062665989612	3	103	CORRECTLY	n/a	n/a	n/a	33	56	518.062665989612
522.058267299368	3	104	CORRECTLY	2.26584018763242	21	SURE_INCORRECT	26	45	522.058267299368
