onset	duration	trial_number	trial_type	reaction_time	response_coded	response_str	pairno_rec	enc_codes_during_rec	onset_noTriggerAdjust
0.130267576000051	3	1	CORRECTLY	2.96972293099998	21	SURE_INCORRECT	3	6	0.130267576000051
4.51521218400012	3	2	INCORRECTLY	2.90571939099982	10	MAYBE_INCORRECT	55	0	4.51521218400012
13.020325901	2	3	CONTROL	1.62525497499996	5	n/a	1000	0	13.020325901
16.064957025	3	4	CORRECTLY	2.76952830899995	28	MAYBE_CORRECT	12	0	16.064957025
21.0125165020002	3	5	CORRECTLY	3.19276670799991	28	MAYBE_CORRECT	8	15	21.0125165020002
25.066494575	2	6	CONTROL	1.62536853799998	28	n/a	1000	0	25.066494575
29.0046204079999	3	7	INCORRECTLY	3.67335393600001	21	SURE_INCORRECT	59	0	29.0046204079999
36.0204880680001	3	8	CORRECTLY	2.0931567529999	5	SURE_CORRECT	7	13	36.0204880680001
40.521243917	3	9	INCORRECTLY	3.08378899900003	10	MAYBE_INCORRECT	68	0	40.521243917
47.007678596	3	10	INCORRECTLY	1.84816831900002	5	SURE_CORRECT	64	0	47.007678596
51.0781674469999	3	11	CORRECTLY	3.21961918600005	5	SURE_CORRECT	6	12	51.0781674469999
56.009125689	2	12	CONTROL	0.841422520999913	5	n/a	1000	0	56.009125689
61.519246349	3	13	INCORRECTLY	1.902930513	5	SURE_CORRECT	78	0	61.519246349
65.5732174500001	3	14	CORRECTLY	2.03878688399982	5	SURE_CORRECT	16	31	65.5732174500001
69.577548732	3	15	CORRECTLY	2.65915861600001	10	MAYBE_INCORRECT	14	0	69.577548732
75.021502951	3	16	CORRECTLY	2.98690589700027	5	SURE_CORRECT	1	3	75.021502951
79.0755148140001	3	17	CORRECTLY	1.66875195600005	5	SURE_CORRECT	5	11	79.0755148140001
83.5100670860002	3	18	INCORRECTLY	2.21300356699976	21	SURE_INCORRECT	51	0	83.5100670860002
90.0129880439999	3	19	INCORRECTLY	2.32793125300032	21	SURE_INCORRECT	47	0	90.0129880439999
94.0669405160002	3	20	INCORRECTLY	2.24202704899972	28	MAYBE_CORRECT	66	0	94.0669405160002
99.0145112599998	3	21	CORRECTLY	2.64629155400007	28	MAYBE_CORRECT	10	20	99.0145112599998
103.068472691	3	22	INCORRECTLY	2.64896616600026	10	MAYBE_INCORRECT	48	0	103.068472691
107.072880461	3	23	INCORRECTLY	3.36670259400034	28	MAYBE_CORRECT	52	0	107.072880461
115.015403595	3	24	INCORRECTLY	2.02434464599992	21	SURE_INCORRECT	45	0	115.015403595
119.516121472	3	25	CORRECTLY	2.97933556999988	10	MAYBE_INCORRECT	9	18	119.516121472
125.506027459	3	26	INCORRECTLY	3.00381306600002	5	SURE_CORRECT	42	0	125.506027459
131.01614585	3	27	INCORRECTLY	2.19842048800001	10	MAYBE_INCORRECT	80	0	131.01614585
137.006164225	3	28	CORRECTLY	1.65404313199997	5	SURE_CORRECT	2	5	137.006164225
142.01983302	2	29	CONTROL	1.77545355599977	10	n/a	1000	0	142.01983302
145.064466625	3	30	INCORRECTLY	2.9089086099998	5	SURE_CORRECT	56	0	145.064466625
150.524957655	3	31	INCORRECTLY	2.8778082230001	5	SURE_CORRECT	43	0	150.524957655
155.009148432	3	32	INCORRECTLY	1.35262228300007	5	SURE_CORRECT	58	0	155.009148432
159.526425869	3	33	CORRECTLY	2.34215063800002	5	SURE_CORRECT	4	9	159.526425869
167.022177496	3	34	CORRECTLY	1.32462863199999	5	SURE_CORRECT	13	0	167.022177496
173.508560791	3	35	CORRECTLY	2.17525858099998	28	MAYBE_CORRECT	11	21	173.508560791
178.52228149	3	36	CORRECTLY	3.5610012230004	10	MAYBE_INCORRECT	15	30	178.52228149
182.576229662	3	37	INCORRECTLY	2.39763302199981	10	MAYBE_INCORRECT	46	0	182.576229662
188.516573107	2	38	CONTROL	1.51154733099975	5	n/a	1000	0	188.516573107
193.513701918	2	39	CONTROL	1.03372725600002	28	n/a	1000	0	193.513701918
198.014457304	3	40	INCORRECTLY	2.62027406099969	5	SURE_CORRECT	62	0	198.014457304
203.011733824	2	41	CONTROL	1.07591267099997	5	n/a	1000	0	203.011733824
207.512439223	2	42	CONTROL	1.32064143100024	21	n/a	1000	0	207.512439223
211.02033917	2	43	CONTROL	2.10764498299977	28	n/a	1000	0	211.02033917
218.516095744	3	44	INCORRECTLY	3.07677527899978	28	MAYBE_CORRECT	49	0	218.516095744
224.009639615	3	45	CORRECTLY	2.02632353599984	5	SURE_CORRECT	27	47	224.009639615
229.519773829	3	46	CORRECTLY	3.78080820200012	5	SURE_CORRECT	30	53	229.519773829
235.01331333	3	47	INCORRECTLY	2.38814406499978	5	SURE_CORRECT	75	0	235.01331333
244.511255744	3	48	CORRECTLY	2.88105192499961	5	SURE_CORRECT	35	58	244.511255744
252.023554557	3	49	CORRECTLY	1.80684568800007	5	SURE_CORRECT	32	55	252.023554557
256.06096083	2	50	CONTROL	1.48745026699999	21	n/a	1000	0	256.06096083
259.072527329	3	51	INCORRECTLY	2.17968372599989	5	SURE_CORRECT	70	0	259.072527329
267.0150195	2	52	CONTROL	1.22348266800009	21	n/a	1000	0	267.0150195
272.525178394	3	53	INCORRECTLY	2.11929657099972	5	SURE_CORRECT	79	0	272.525178394
277.52226569	3	54	INCORRECTLY	1.72271174400021	5	SURE_CORRECT	65	0	277.52226569
282.006522579	2	55	CONTROL	1.02358319900031	5	n/a	1000	0	282.006522579
285.06764829	3	56	INCORRECTLY	2.55226589400036	5	SURE_CORRECT	53	0	285.06764829
292.017346565	3	57	INCORRECTLY	3.60254499600023	28	MAYBE_CORRECT	76	0	292.017346565
296.071333957	2	58	CONTROL	1.49201515799996	5	n/a	1000	0	296.071333957
300.026099922	3	59	INCORRECTLY	2.49467935300027	10	MAYBE_INCORRECT	41	0	300.026099922
305.519660772	2	60	CONTROL	1.30979598600015	10	n/a	1000	0	305.519660772
310.020342827	3	61	INCORRECTLY	3.17391326200004	28	MAYBE_CORRECT	63	0	310.020342827
318.012454297	3	62	CORRECTLY	2.94688123599963	5	SURE_CORRECT	38	61	318.012454297
325.011833493	3	63	CORRECTLY	1.52805472099999	5	SURE_CORRECT	24	41	325.011833493
330.025553499	3	64	CORRECTLY	2.33993790800014	28	MAYBE_CORRECT	21	37	330.025553499
335.519082922	3	65	INCORRECTLY	3.35083052299979	28	MAYBE_CORRECT	67	0	335.519082922
341.525644698	3	66	CORRECTLY	1.60731528499991	21	SURE_INCORRECT	34	57	341.525644698
346.506244545	3	67	INCORRECTLY	2.50972864100004	10	MAYBE_INCORRECT	60	0	346.506244545
351.006958615	2	68	CONTROL	1.71799402799979	21	n/a	1000	0	351.006958615
355.02790984	3	69	CORRECTLY	3.75602724700002	28	MAYBE_CORRECT	22	38	355.02790984
362.523602478	3	70	CORRECTLY	3.27681690999998	28	MAYBE_CORRECT	25	44	362.523602478
367.024375457	3	71	INCORRECTLY	1.72144873199977	5	SURE_CORRECT	71	0	367.024375457
371.078366111	3	72	INCORRECTLY	n/a	n/a	n/a	57	0	371.078366111
375.512936877	3	73	CORRECTLY	1.50220173600019	21	SURE_INCORRECT	19	35	375.512936877
381.023042973	2	74	CONTROL	1.76597764400003	28	n/a	1000	0	381.023042973
386.003632322	3	75	INCORRECTLY	2.27468437299967	5	SURE_CORRECT	74	0	386.003632322
391.513794794	2	76	CONTROL	2.09547899899962	10	n/a	1000	0	391.513794794
395.518177166	3	77	CORRECTLY	1.41781657000001	5	SURE_CORRECT	17	32	395.518177166
401.011759241	2	78	CONTROL	1.00241106699968	5	n/a	1000	0	401.011759241
405.015998547	3	79	INCORRECTLY	n/a	n/a	n/a	77	0	405.015998547
409.516848856	2	80	CONTROL	1.1713911869997	10	n/a	1000	0	409.516848856
415.506745126	3	81	INCORRECTLY	2.17646964899996	5	SURE_CORRECT	44	0	415.506745126
421.513238753	3	82	CORRECTLY	2.55666624299965	10	MAYBE_INCORRECT	40	64	421.513238753
426.014049609	3	83	CORRECTLY	n/a	n/a	n/a	28	48	426.014049609
430.067975485	3	84	INCORRECTLY	2.21621112699995	28	MAYBE_CORRECT	50	0	430.067975485
437.01771802	3	85	INCORRECTLY	3.31988684400039	5	SURE_CORRECT	72	0	437.01771802
443.520604884	3	86	INCORRECTLY	3.60321901299994	10	MAYBE_INCORRECT	69	0	443.520604884
447.57456756	3	87	CORRECTLY	1.61761146299978	5	SURE_CORRECT	18	34	447.57456756
452.505526508	2	88	CONTROL	1.10117382599992	10	n/a	1000	0	452.505526508
455.566750316	2	89	CONTROL	1.76534665399959	28	n/a	1000	0	455.566750316
462.020011692	3	90	INCORRECTLY	2.19318685999997	5	SURE_CORRECT	61	0	462.020011692
466.074052005	2	91	CONTROL	1.48783545900005	21	n/a	1000	0	466.074052005
470.508575841	3	92	INCORRECTLY	2.24800297199999	28	MAYBE_CORRECT	73	0	470.508575841
474.579119547	3	93	CORRECTLY	2.66902889599987	10	MAYBE_INCORRECT	29	52	474.579119547
479.510132492	3	94	CORRECTLY	2.6704013640001	5	SURE_CORRECT	20	36	479.510132492
484.507268186	2	95	CONTROL	1.23902272899977	21	n/a	1000	0	484.507268186
489.007972802	3	96	CORRECTLY	1.67016312799979	5	SURE_CORRECT	31	54	489.007972802
493.07852348	3	97	CORRECTLY	2.75373025399995	21	SURE_INCORRECT	23	40	493.07852348
498.009529957	3	98	CORRECTLY	3.29064221299996	28	MAYBE_CORRECT	37	60	498.009529957
502.510343578	3	99	CORRECTLY	2.90721152399965	10	MAYBE_INCORRECT	36	59	502.510343578
506.564242614	2	100	CONTROL	1.32355969799983	21	n/a	1000	0	506.564242614
510.02252495	3	101	INCORRECTLY	n/a	n/a	n/a	54	0	510.02252495
514.076531401	3	102	CORRECTLY	1.61122683199983	5	SURE_CORRECT	39	63	514.076531401
518.080897505	3	103	CORRECTLY	1.64828461900015	5	SURE_CORRECT	33	56	518.080897505
522.068689593	3	104	CORRECTLY	2.29628624199995	28	MAYBE_CORRECT	26	45	522.068689593
