onset	duration	trial_number	trial_type	trial_type_coded	reaction_time	expected_response_coded	response	response_coded	accuracy	accuracy_scrambled	accuracy_task	rec_codes_during_enc	onset_probe	onset_noTriggerAdjust	onset_probe_noTriggerAdjust
0.0134312703553405	2	1	CONTROL	1	0.879167947520273	1	LEFT	5	1	1	0	0	0.0466035584795463	0.0134312703553405	0.0466035584795463
4.5230025702308	2	2	CONTROL	1	0.701010406520254	2	RIGHT	28	1	1	0	0	4.53956754747969	4.5230025702308	4.53956754747969
11.5193500474793	4	3	TASK	2	0.663717911769254	1	LEFT	5	1	0	1	16	12.5141186272308	11.5193500474793	12.5141186272308
19.5271336672308	2	4	CONTROL	1	0.710142453769095	1	LEFT	5	1	1	0	0	19.5437610332306	19.5271336672308	19.5437610332306
22.0637167174796	4	5	TASK	2	0.724524195768936	2	RIGHT	28	1	0	1	28	23.0087925742309	22.0637167174796	23.0087925742309
38.5103626512309	4	6	TASK	2	0.796660087130022	1	LEFT	5	1	0	1	1	39.5051884068698	38.5103626512309	39.5051884068698
49.5189833298696	2	7	CONTROL	1	0.666673818130221	2	RIGHT	28	1	1	0	0	49.5355851988697	49.5189833298696	49.5355851988697
56.5153913901186	2	8	CONTROL	1	0.928445090130026	2	RIGHT	28	1	1	0	0	56.5319864378698	56.5153913901186	56.5319864378698
66.0153154688696	4	9	TASK	2	0.591576016005547	2	RIGHT	28	1	0	1	33	67.0100333819942	66.0153154688696	67.0100333819942
70.5248514139939	2	10	CONTROL	1	0.649880845130156	2	RIGHT	28	1	1	0	0	70.5414105838695	70.5248514139939	70.5414105838695
76.0125450699938	4	11	TASK	2	0.723532833520494	2	RIGHT	28	1	0	1	17	77.0071702854793	76.0125450699938	77.0071702854793
81.5167364372305	4	12	TASK	2	0.763117136005803	2	RIGHT	28	1	0	1	11	82.5116366899942	81.5167364372305	82.5116366899942
92.5087382404795	4	13	TASK	2	0.752792152005895	1	LEFT	5	1	0	1	8	93.5201715239941	92.5087382404795	93.5201715239941
98.013157592994	2	14	CONTROL	1	0.774957075005659	1	LEFT	5	1	1	0	0	98.0297194009941	98.013157592994	98.0297194009941
104.51221446787	4	15	TASK	2	0.671675542254434	1	LEFT	5	1	0	1	5	105.507013428745	104.51221446787	105.507013428745
109.021758837994	2	16	CONTROL	1	0.661481070005721	1	LEFT	5	1	1	0	0	109.038313225994	109.021758837994	109.038313225994
112.022531516994	2	17	CONTROL	1	0.653349248005725	2	RIGHT	28	1	1	0	0	112.039160294994	112.022531516994	112.039160294994
118.50506775387	4	18	TASK	2	0.643946229005905	2	RIGHT	28	1	0	1	25	119.516352849994	118.50506775387	119.516352849994
125.020648266994	2	19	CONTROL	1	0.615378284006056	1	LEFT	5	1	1	0	0	125.037277081994	125.020648266994	125.037277081994
129.016308914994	4	20	TASK	2	0.6166567172545	1	LEFT	5	1	0	1	21	130.011071028745	129.016308914994	130.011071028745
135.017914281994	4	21	TASK	2	0.559925875005774	2	RIGHT	28	1	0	1	35	136.012658982994	135.017914281994	136.012658982994
151.016765020355	4	22	TASK	2	0.669488675130651	1	LEFT	5	1	0	1	4	152.011651200869	151.016765020355	152.011651200869
155.526341508355	4	23	TASK	2	0.922277576893521	2	RIGHT	28	1	0	1	34	156.521053902106	155.526341508355	156.521053902106
161.014162169869	2	24	CONTROL	1	0.74260913713033	2	RIGHT	28	1	1	0	0	161.03066260987	161.014162169869	161.03066260987
165.026217125355	2	25	CONTROL	1	0.526839246768759	1	LEFT	5	1	1	0	0	165.042787727231	165.026217125355	165.042787727231
174.509446546604	2	26	CONTROL	1	0.493689571136201	2	RIGHT	28	1	1	0	0	174.526148189864	174.509446546604	174.526148189864
179.516471194994	2	27	CONTROL	1	0.556937602005746	2	RIGHT	28	1	1	0	0	179.533101635994	179.516471194994	179.533101635994
182.053083207994	4	28	TASK	2	0.744056423005986	2	RIGHT	28	1	0	1	15	183.014747382994	182.053083207994	183.014747382994
189.016333694355	2	29	CONTROL	1	0.633361154638806	2	RIGHT	28	1	1	0	0	189.032928968361	189.016333694355	189.032928968361
193.01195748287	4	30	TASK	2	0.643419041005473	2	RIGHT	28	1	0	1	36	194.006715205994	193.01195748287	194.006715205994
202.014386522231	4	31	TASK	2	0.636124712005767	2	RIGHT	28	1	0	1	14	203.009244753994	202.014386522231	203.009244753994
209.508156855355	4	32	TASK	2	1.00501462513603	1	LEFT	5	1	0	1	77	210.519606419864	209.508156855355	210.519606419864
216.007314326994	2	33	CONTROL	1	0.837813759005712	2	RIGHT	28	1	1	0	0	216.023921096994	216.007314326994	216.023921096994
220.516831716355	4	34	TASK	2	1.05850858464464	1	LEFT	5	1	0	1	87	221.511523500355	220.516831716355	221.511523500355
226.021137459994	4	35	TASK	2	0.738685014130169	1	LEFT	5	1	0	1	73	227.01592978287	226.021137459994	227.01592978287
240.013997059994	4	36	TASK	2	0.70067520300563	1	LEFT	5	1	0	1	94	241.008729992994	240.013997059994	241.008729992994
254.023457413994	4	37	TASK	2	0.583726397006103	1	LEFT	5	1	0	1	64	255.018174130994	254.023457413994	255.018174130994
261.517100264231	4	38	TASK	2	0.635730503130162	2	RIGHT	28	1	0	1	69	262.51203773987	261.517100264231	262.51203773987
280.01955694448	2	39	CONTROL	1	0.682738244384382	1	LEFT	5	1	1	0	0	280.036211661616	280.01955694448	280.036211661616
283.020329371479	4	40	TASK	2	0.687610553769446	2	RIGHT	28	1	0	1	97	284.015114063231	283.020329371479	284.015114063231
292.022858839231	4	41	TASK	2	0.808554100005495	1	LEFT	5	1	0	1	63	293.017731493994	292.022858839231	293.017731493994
297.52714014948	2	42	CONTROL	1	0.721160883130324	1	LEFT	5	1	1	0	0	297.54387139987	297.52714014948	297.54387139987
305.518410895994	2	43	CONTROL	1	0.795946555260343	1	LEFT	5	1	1	0	0	305.53502573374	305.518410895994	305.53502573374
316.510452865994	4	44	TASK	2	0.82083696726022	1	LEFT	5	1	0	1	70	317.505138207739	316.510452865994	317.505138207739
324.020782906231	4	45	TASK	2	0.771933496893325	1	LEFT	5	1	0	1	104	325.015487105106	324.020782906231	325.015487105106
331.017132494479	2	46	CONTROL	1	0.573827501644701	1	LEFT	5	1	1	0	0	331.033738784355	331.017132494479	331.033738784355
336.521410425231	4	47	TASK	2	0.803450359260296	2	RIGHT	28	1	0	1	45	337.516302250739	336.521410425231	337.516302250739
347.016094294231	4	48	TASK	2	0.583091766769485	2	RIGHT	28	1	0	1	83	348.010861239231	347.016094294231	348.010861239231
358.024717074355	2	49	CONTROL	1	0.591872248638992	1	LEFT	5	1	1	0	0	358.041262555361	358.024717074355	358.041262555361
363.014977024479	2	50	CONTROL	1	0.694858401520378	2	RIGHT	28	1	1	0	0	363.03152908048	363.014977024479	363.03152908048
370.508866935858	2	51	CONTROL	1	0.618993269769362	2	RIGHT	28	1	1	0	0	370.525369085231	370.508866935858	370.525369085231
376.51062441087	4	52	TASK	2	0.660468441005833	2	RIGHT	28	1	0	1	93	377.505273054994	376.51062441087	377.505273054994
383.506915540858	4	53	TASK	2	0.683864800644642	1	LEFT	5	1	0	1	46	384.518192898355	383.506915540858	384.518192898355
390.519855032355	4	54	TASK	2	0.780644638644844	2	RIGHT	28	1	0	1	96	391.514638291355	390.519855032355	391.514638291355
405.010136025231	4	55	TASK	2	0.935580429520542	2	RIGHT	28	1	0	1	49	406.02146328448	405.010136025231	406.02146328448
412.006532806231	4	56	TASK	2	0.705920849768972	2	RIGHT	28	1	0	1	103	413.017845577231	412.006532806231	413.017845577231
418.522196933231	4	57	TASK	2	0.880342418769033	2	RIGHT	28	1	0	1	66	419.516904146231	418.522196933231	419.516904146231
429.514219339355	4	58	TASK	2	0.676687818639039	2	RIGHT	28	1	0	1	48	430.508973876361	429.514219339355	430.508973876361
443.523649037106	4	59	TASK	2	0.926333023769075	2	RIGHT	28	1	0	1	99	444.518359152231	443.523649037106	444.518359152231
448.033129267231	4	60	TASK	2	0.681312468520446	1	LEFT	5	1	0	1	98	449.01131688148	448.033129267231	449.01131688148
453.023522896106	4	61	TASK	2	0.786046845644705	2	RIGHT	28	1	0	1	62	454.018194791355	453.023522896106	454.018194791355
459.522519848106	2	62	CONTROL	1	0.983836578769115	1	LEFT	5	1	1	0	0	459.539082458231	459.522519848106	459.539082458231
465.010298457994	4	63	TASK	2	0.779551699130025	1	LEFT	5	1	0	1	102	466.00504259687	465.010298457994	466.00504259687
473.515409305231	4	64	TASK	2	0.767067986520487	2	RIGHT	28	1	0	1	82	474.51009481048	473.515409305231	474.51009481048
