onset	duration	trial_number	trial_type	reaction_time	response_coded	response_str	pairno_rec	enc_codes_during_rec	onset_noTriggerAdjust
0.0786784092670132	3	1	CORRECTLY	3.24036265573295	5	SURE_CORRECT	3	6	0.0786784092670132
4.52203004269904	3	2	INCORRECTLY	2.28244454330115	21	SURE_INCORRECT	55	0	4.52203004269904
13.0270265452668	2	3	CONTROL	2.62359959273317	5	n/a	1000	0	13.0270265452668
16.0611348118696	3	4	CORRECTLY	2.81110853113069	10	MAYBE_INCORRECT	12	0	16.0611348118696
21.0182727577385	3	5	CORRECTLY	1.53303113526135	5	SURE_CORRECT	8	15	21.0182727577385
25.0635746080397	2	6	CONTROL	1.84938403596016	28	n/a	1000	0	25.0635746080397
29.0260262862671	3	7	INCORRECTLY	2.83462828573283	28	MAYBE_CORRECT	59	0	29.0260262862671
36.0224233482672	3	8	CORRECTLY	2.32964720973268	5	SURE_CORRECT	7	13	36.0224233482672
40.5154016127385	3	9	INCORRECTLY	3.78320014926157	5	SURE_CORRECT	68	0	40.5154016127385
47.0144284972102	3	10	INCORRECTLY	2.71941439978991	10	MAYBE_INCORRECT	64	0	47.0144284972102
51.0763192482668	3	11	CORRECTLY	2.42362886473302	5	SURE_CORRECT	6	12	51.0763192482668
56.0169558042671	2	12	CONTROL	1.64821980573288	5	n/a	1000	0	56.0169558042671
61.5212271167952	3	13	INCORRECTLY	1.63871521520468	5	SURE_CORRECT	78	0	61.5212271167952
65.5665067487384	3	14	CORRECTLY	2.56389322226141	28	MAYBE_CORRECT	16	31	65.5665067487384
69.5787431782669	3	15	CORRECTLY	3.60455420773314	10	MAYBE_INCORRECT	14	0	69.5787431782669
75.0167367712675	3	16	CORRECTLY	1.15535369373265	5	SURE_CORRECT	1	3	75.0167367712675
79.0786060502669	3	17	CORRECTLY	1.41570326873352	5	SURE_CORRECT	5	11	79.0786060502669
83.521842134739	3	18	INCORRECTLY	2.07184449426131	5	SURE_CORRECT	51	0	83.521842134739
90.0208574157386	3	19	INCORRECTLY	2.42236687326113	21	SURE_INCORRECT	47	0	90.0208574157386
94.0662610685113	3	20	INCORRECTLY	2.90357225348907	10	MAYBE_INCORRECT	66	0	94.0662610685113
99.0233542577953	3	21	CORRECTLY	3.00687179020497	10	MAYBE_INCORRECT	10	20	99.0233542577953
103.068659436267	3	22	INCORRECTLY	1.425194900733	5	SURE_CORRECT	48	0	103.068659436267
107.064385865869	3	23	INCORRECTLY	3.15866128213111	28	MAYBE_CORRECT	52	0	107.064385865869
115.022288990267	3	24	INCORRECTLY	1.6246838717334	5	SURE_CORRECT	45	0	115.022288990267
119.515218995795	3	25	CORRECTLY	1.5926238452048	5	SURE_CORRECT	9	18	119.515218995795
125.516961011267	3	26	INCORRECTLY	2.64440776173342	10	MAYBE_INCORRECT	42	0	125.516961011267
131.021239951795	3	27	INCORRECTLY	2.97156831920529	5	SURE_CORRECT	80	0	131.021239951795
137.006396416982	3	28	CORRECTLY	3.1106743300179	5	SURE_CORRECT	2	5	137.006396416982
142.01326526104	2	29	CONTROL	2.82190769295994	10	n/a	1000	0	142.01326526104
145.08037636221	3	30	INCORRECTLY	1.42458569679002	5	SURE_CORRECT	56	0	145.08037636221
150.518483938227	3	31	INCORRECTLY	3.36993549077306	5	SURE_CORRECT	43	0	150.518483938227
155.011353672739	3	32	INCORRECTLY	n/a	n/a	n/a	58	0	155.011353672739
159.520831496795	3	33	CORRECTLY	3.79489195220503	10	MAYBE_INCORRECT	4	9	159.520831496795
167.01473550221	3	34	CORRECTLY	3.09040483079025	28	MAYBE_CORRECT	13	0	167.01473550221
173.513790137227	3	35	CORRECTLY	3.65856060277292	28	MAYBE_CORRECT	11	21	173.513790137227
178.520614202267	3	36	CORRECTLY	2.16290258373283	5	SURE_CORRECT	15	30	178.520614202267
182.565916357795	3	37	INCORRECTLY	2.40921523120505	5	SURE_CORRECT	46	0	182.565916357795
188.517945727739	2	38	CONTROL	n/a	n/a	n/a	1000	0	188.517945727739
193.508207451739	2	39	CONTROL	1.71881744626171	28	n/a	1000	0	193.508207451739
198.017770787739	3	40	INCORRECTLY	2.39564598026118	28	MAYBE_CORRECT	62	0	198.017770787739
203.024657180739	2	41	CONTROL	2.23596380126037	5	n/a	1000	0	203.024657180739
207.517608875267	2	42	CONTROL	2.13017209373356	21	n/a	1000	0	207.517608875267
211.015836706739	2	43	CONTROL	1.6614047582616	28	n/a	1000	0	211.015836706739
218.509691943267	3	44	INCORRECTLY	n/a	n/a	n/a	49	0	218.509691943267
224.013960398267	3	45	CORRECTLY	2.86574549673333	10	MAYBE_INCORRECT	27	47	224.013960398267
229.518276117738	3	46	CORRECTLY	1.9649748662614	28	MAYBE_CORRECT	30	53	229.518276117738
235.006022016209	3	47	INCORRECTLY	2.84474415079058	28	MAYBE_CORRECT	75	0	235.006022016209
244.522465232983	3	48	CORRECTLY	3.04026365601749	28	MAYBE_CORRECT	35	58	244.522465232983
252.016221550739	3	49	CORRECTLY	n/a	n/a	n/a	32	55	252.016221550739
256.078126688739	2	50	CONTROL	n/a	n/a	n/a	1000	0	256.078126688739
259.062388076739	3	51	INCORRECTLY	0.724641457260986	28	MAYBE_CORRECT	70	0	259.062388076739
267.020441921267	2	52	CONTROL	n/a	n/a	n/a	1000	0	267.020441921267
272.524729980739	3	53	INCORRECTLY	2.54654029526137	5	SURE_CORRECT	79	0	272.524729980739
277.515075766267	3	54	INCORRECTLY	3.57135558473328	5	SURE_CORRECT	65	0	277.515075766267
282.008020615267	2	55	CONTROL	1.96124279173273	5	n/a	1000	0	282.008020615267
285.058555746267	3	56	INCORRECTLY	2.61798831473243	28	MAYBE_CORRECT	53	0	285.058555746267
292.021827031267	3	57	INCORRECTLY	2.66686628873322	28	MAYBE_CORRECT	76	0	292.021827031267
296.067186653926	2	58	CONTROL	1.83194123507383	5	n/a	1000	0	296.067186653926
300.013035755739	3	59	INCORRECTLY	2.18381298226086	5	SURE_CORRECT	41	0	300.013035755739
305.517442692699	2	60	CONTROL	n/a	n/a	n/a	1000	0	305.517442692699
310.026827632795	3	61	INCORRECTLY	n/a	n/a	n/a	63	0	310.026827632795
318.018021996267	3	62	CORRECTLY	n/a	n/a	n/a	38	61	318.018021996267
325.014469952739	3	63	CORRECTLY	n/a	n/a	n/a	24	41	325.014469952739
330.021354680739	3	64	CORRECTLY	2.84506503926059	5	SURE_CORRECT	21	37	330.021354680739
335.525648909739	3	65	INCORRECTLY	3.2038927852609	10	MAYBE_INCORRECT	67	0	335.525648909739
341.510730990739	3	66	CORRECTLY	n/a	n/a	n/a	34	57	341.510730990739
346.517693421267	3	67	INCORRECTLY	1.89425381873298	5	SURE_CORRECT	60	0	346.517693421267
351.010593547739	2	68	CONTROL	1.78916957726142	21	n/a	1000	0	351.010593547739
355.022816457739	3	69	CORRECTLY	2.55042191726079	28	MAYBE_CORRECT	22	38	355.022816457739
362.516689842699	3	70	CORRECTLY	n/a	n/a	n/a	25	44	362.516689842699
367.00958813121	3	71	INCORRECTLY	n/a	n/a	n/a	71	0	367.00958813121
371.071476367739	3	72	INCORRECTLY	2.97188931826167	5	SURE_CORRECT	57	0	371.071476367739
375.514730262739	3	73	CORRECTLY	3.04031796526124	5	SURE_CORRECT	19	35	375.514730262739
381.018948779739	2	74	CONTROL	1.83747422326087	28	n/a	1000	0	381.018948779739
386.025855502795	3	75	INCORRECTLY	2.01039938220492	5	SURE_CORRECT	74	0	386.025855502795
391.513595504739	2	76	CONTROL	n/a	n/a	n/a	1000	0	391.513595504739
395.525740000267	3	77	CORRECTLY	3.12204269373251	10	MAYBE_INCORRECT	17	32	395.525740000267
401.013464762739	2	78	CONTROL	n/a	n/a	n/a	1000	0	401.013464762739
405.02569885421	3	79	INCORRECTLY	1.94049371079018	5	SURE_CORRECT	77	0	405.02569885421
409.518584415795	2	80	CONTROL	2.24487809420498	10	n/a	1000	0	409.518584415795
415.520297904267	3	81	INCORRECTLY	3.80628648573293	28	MAYBE_CORRECT	44	0	415.520297904267
421.521982158739	3	82	CORRECTLY	2.92662025326081	10	MAYBE_INCORRECT	40	64	421.521982158739
426.014928882739	3	83	CORRECTLY	n/a	n/a	n/a	28	48	426.014928882739
430.076786454323	3	84	INCORRECTLY	n/a	n/a	n/a	50	0	430.076786454323
437.023540222739	3	85	INCORRECTLY	n/a	n/a	n/a	72	0	437.023540222739
443.522596135739	3	86	INCORRECTLY	n/a	n/a	n/a	69	0	443.522596135739
447.56794606321	3	87	CORRECTLY	n/a	n/a	n/a	18	34	447.56794606321
452.508472181795	2	88	CONTROL	n/a	n/a	n/a	1000	0	452.508472181795
455.559025294267	2	89	CONTROL	n/a	n/a	n/a	1000	0	455.559025294267
462.008380022738	3	90	INCORRECTLY	n/a	n/a	n/a	61	0	462.008380022738
466.070330619267	2	91	CONTROL	n/a	n/a	n/a	1000	0	466.070330619267
470.51347435121	3	92	INCORRECTLY	3.33299967878975	28	MAYBE_CORRECT	73	0	470.51347435121
474.575358705795	3	93	CORRECTLY	2.01077261620503	28	MAYBE_CORRECT	29	52	474.575358705795
479.516018900267	3	94	CORRECTLY	2.69329314073275	5	SURE_CORRECT	20	36	479.516018900267
484.522957586267	2	95	CONTROL	n/a	n/a	n/a	1000	0	484.522957586267
489.015847965795	3	96	CORRECTLY	2.8663536962049	10	MAYBE_INCORRECT	31	54	489.015847965795
493.061221220739	3	97	CORRECTLY	2.23346136826149	5	SURE_CORRECT	23	40	493.061221220739
498.018366115267	3	98	CORRECTLY	n/a	n/a	n/a	37	60	498.018366115267
502.511381115739	3	99	CORRECTLY	0.00860669226130995	10	MAYBE_INCORRECT	36	59	502.511381115739
506.573291535267	2	100	CONTROL	n/a	n/a	n/a	1000	0	506.573291535267
510.021722430795	3	101	INCORRECTLY	n/a	n/a	n/a	54	0	510.021722430795
514.067068817983	3	102	CORRECTLY	n/a	n/a	n/a	39	63	514.067068817983
518.062721709153	3	103	CORRECTLY	n/a	n/a	n/a	33	56	518.062721709153
522.074871051739	3	104	CORRECTLY	n/a	n/a	n/a	26	45	522.074871051739
