onset	duration	trial_number	trial_type	reaction_time	response_coded	response_str	pairno_rec	enc_codes_during_rec	onset_noTriggerAdjust
0.0787172611171627	3	1	CORRECTLY	2.20151383388293	21	SURE_INCORRECT	3	6	0.0787172611171627
4.52191965211659	3	2	INCORRECTLY	1.50750224488365	21	SURE_INCORRECT	55	0	4.52191965211659
13.010555641833	2	3	CONTROL	2.53499022116739	5	n/a	1000	0	13.010555641833
16.06116776819	3	4	CORRECTLY	3.22144378581015	21	SURE_INCORRECT	12	0	16.06116776819
21.0183026401173	3	5	CORRECTLY	2.10087538588323	21	SURE_INCORRECT	8	15	21.0183026401173
25.0636385501903	2	6	CONTROL	n/a	n/a	n/a	1000	0	25.0636385501903
29.0260441753917	3	7	INCORRECTLY	1.45713108560903	21	SURE_INCORRECT	59	0	29.0260441753917
36.0058762548324	3	8	CORRECTLY	1.89939957516799	5	SURE_CORRECT	7	13	36.0058762548324
40.5154569821898	3	9	INCORRECTLY	1.43272833981064	21	SURE_INCORRECT	68	0	40.5154569821898
47.014433957117	3	10	INCORRECTLY	2.97484377088313	28	MAYBE_CORRECT	64	0	47.014433957117
51.0598707113804	3	11	CORRECTLY	1.61961384062033	21	SURE_INCORRECT	6	12	51.0598707113804
56.016931440392	2	12	CONTROL	1.87740554460834	5	n/a	1000	0	56.016931440392
61.5212809061168	3	13	INCORRECTLY	1.87870236388335	21	SURE_INCORRECT	78	0	61.5212809061168
65.5665900031172	3	14	CORRECTLY	1.45650960188323	21	SURE_INCORRECT	16	31	65.5665900031172
69.562120996392	3	15	CORRECTLY	1.47983873360863	21	SURE_INCORRECT	14	0	69.562120996392
75.0167643538434	3	16	CORRECTLY	1.795761148157	21	SURE_INCORRECT	1	3	75.0167643538434
79.0786541553916	3	17	CORRECTLY	1.92371018460835	21	SURE_INCORRECT	5	11	79.0786541553916
83.5218061166652	3	18	INCORRECTLY	1.91378769033508	21	SURE_INCORRECT	51	0	83.5218061166652
90.0209468831172	3	19	INCORRECTLY	1.25847085688292	21	SURE_INCORRECT	47	0	90.0209468831172
94.0663044243802	3	20	INCORRECTLY	1.8413399976198	21	SURE_INCORRECT	66	0	94.0663044243802
99.023417279117	3	21	CORRECTLY	1.15488473088317	21	SURE_INCORRECT	10	20	99.023417279117
103.068729388117	3	22	INCORRECTLY	2.46234963588267	21	SURE_INCORRECT	48	0	103.068729388117
107.080863878117	3	23	INCORRECTLY	1.1172860408833	21	SURE_INCORRECT	52	0	107.080863878117
115.005795631117	3	24	INCORRECTLY	2.06481222688399	5	SURE_CORRECT	45	0	115.005795631117
119.515303535117	3	25	CORRECTLY	2.52030639288387	21	SURE_INCORRECT	9	18	119.515303535117
125.517001446392	3	26	INCORRECTLY	1.2109308066083	21	SURE_INCORRECT	42	0	125.517001446392
131.021297532391	3	27	INCORRECTLY	0.895998736608817	21	SURE_INCORRECT	80	0	131.021297532391
137.006354065392	3	28	CORRECTLY	2.1341841066087	21	SURE_INCORRECT	2	5	137.006354065392
142.013312939392	2	29	CONTROL	n/a	n/a	n/a	1000	0	142.013312939392
145.063806706117	3	30	INCORRECTLY	2.25847455588337	5	SURE_CORRECT	56	0	145.063806706117
150.518436339117	3	31	INCORRECTLY	2.22504881688292	21	SURE_INCORRECT	43	0	150.518436339117
155.011409355654	3	32	INCORRECTLY	1.04720448734679	21	SURE_INCORRECT	58	0	155.011409355654
159.520943361392	3	33	CORRECTLY	1.44512739260881	21	SURE_INCORRECT	4	9	159.520943361392
167.014674651666	3	34	CORRECTLY	2.48469373133503	5	SURE_CORRECT	13	0	167.014674651666
173.513727737391	3	35	CORRECTLY	1.66809311960878	21	SURE_INCORRECT	11	21	173.513727737391
178.520675465666	3	36	CORRECTLY	1.22350520633518	21	SURE_INCORRECT	15	30	178.520675465666
182.566050380843	3	37	INCORRECTLY	1.65423057515727	21	SURE_INCORRECT	46	0	182.566050380843
188.517938642117	2	38	CONTROL	2.51881386988316	5	n/a	1000	0	188.517938642117
193.524893195392	2	39	CONTROL	2.11985633460881	5	n/a	1000	0	193.524893195392
198.017773487665	3	40	INCORRECTLY	1.63284331833529	21	SURE_INCORRECT	62	0	198.017773487665
203.024749401843	2	41	CONTROL	1.73704606915726	5	n/a	1000	0	203.024749401843
207.517713726392	2	42	CONTROL	1.50171057560874	21	n/a	1000	0	207.517713726392
211.015984290189	2	43	CONTROL	1.3946793888108	28	n/a	1000	0	211.015984290189
218.509697808665	3	44	INCORRECTLY	1.48982098833585	21	SURE_INCORRECT	49	0	218.509697808665
224.014044387844	3	45	CORRECTLY	2.4838864851572	21	SURE_INCORRECT	27	47	224.014044387844
229.518283590392	3	46	CORRECTLY	1.643773745609	21	SURE_INCORRECT	30	53	229.518283590392
235.006024320285	3	47	INCORRECTLY	1.08121334571479	21	SURE_INCORRECT	75	0	235.006024320285
244.522417175665	3	48	CORRECTLY	1.15274984133521	21	SURE_INCORRECT	35	58	244.522417175665
252.016205379665	3	49	CORRECTLY	1.64206538533563	21	SURE_INCORRECT	32	55	252.016205379665
256.061566848392	2	50	CONTROL	2.153190163609	21	n/a	1000	0	256.061566848392
259.06240463957	3	51	INCORRECTLY	1.65372249243046	21	SURE_INCORRECT	70	0	259.06240463957
267.020401347665	2	52	CONTROL	1.43297791533496	21	n/a	1000	0	267.020401347665
272.50822735519	3	53	INCORRECTLY	2.53899613381054	5	SURE_CORRECT	79	0	272.50822735519
277.515048816117	3	54	INCORRECTLY	1.52422708388349	21	SURE_INCORRECT	65	0	277.515048816117
282.024658333654	2	55	CONTROL	1.82768761734678	5	n/a	1000	0	282.024658333654
285.075286974654	3	56	INCORRECTLY	2.1680952833467	21	SURE_INCORRECT	53	0	285.075286974654
292.021886318666	3	57	INCORRECTLY	1.01310534033473	21	SURE_INCORRECT	76	0	292.021886318666
296.067205070665	2	58	CONTROL	1.25679785433476	5	n/a	1000	0	296.067205070665
300.029635078392	3	59	INCORRECTLY	1.70258546860805	21	SURE_INCORRECT	41	0	300.029635078392
305.517383155391	2	60	CONTROL	1.87607682760881	10	n/a	1000	0	305.517383155391
310.010388772654	3	61	INCORRECTLY	2.74655952134708	28	MAYBE_CORRECT	63	0	310.010388772654
318.018060672392	3	62	CORRECTLY	1.09379676960907	21	SURE_INCORRECT	38	61	318.018060672392
325.014513201391	3	63	CORRECTLY	1.574012769609	21	SURE_INCORRECT	24	41	325.014513201391
330.021358503392	3	64	CORRECTLY	1.23495665160863	21	SURE_INCORRECT	21	37	330.021358503392
335.525648935391	3	65	INCORRECTLY	2.64694716260874	21	SURE_INCORRECT	67	0	335.525648935391
341.51089273156	3	66	CORRECTLY	1.09250934644115	21	SURE_INCORRECT	34	57	341.51089273156
346.517661818117	3	67	INCORRECTLY	2.86932267188331	28	MAYBE_CORRECT	60	0	346.517661818117
351.010708949928	2	68	CONTROL	1.42195746807283	21	n/a	1000	0	351.010708949928
355.022879082391	3	69	CORRECTLY	1.1877984106095	21	SURE_INCORRECT	22	38	355.022879082391
362.516595877391	3	70	CORRECTLY	1.18756339760876	21	SURE_INCORRECT	25	44	362.516595877391
367.009638698391	3	71	INCORRECTLY	3.18718413260922	28	MAYBE_CORRECT	71	0	367.009638698391
371.055034552285	3	72	INCORRECTLY	1.36146381071558	21	SURE_INCORRECT	57	0	371.055034552285
375.514734739117	3	73	CORRECTLY	1.58413082188417	21	SURE_INCORRECT	19	35	375.514734739117
381.019095432654	2	74	CONTROL	1.81515948034667	28	n/a	1000	0	381.019095432654
386.009400074392	3	75	INCORRECTLY	2.05077938460818	21	SURE_INCORRECT	74	0	386.009400074392
391.513625518392	2	76	CONTROL	1.56110866160907	10	n/a	1000	0	391.513625518392
395.509204391392	3	77	CORRECTLY	2.56565838160805	5	SURE_CORRECT	17	32	395.509204391392
401.013618233917	2	78	CONTROL	1.30098279408412	5	n/a	1000	0	401.013618233917
405.025702419117	3	79	INCORRECTLY	1.32710816088365	21	SURE_INCORRECT	77	0	405.025702419117
409.518656615392	2	80	CONTROL	2.04951617460847	10	n/a	1000	0	409.518656615392
415.520372374392	3	81	INCORRECTLY	2.78614645360904	10	MAYBE_INCORRECT	44	0	415.520372374392
421.521994135665	3	82	CORRECTLY	1.00276544433473	21	SURE_INCORRECT	40	64	421.521994135665
426.014994178392	3	83	CORRECTLY	1.08285512760813	21	SURE_INCORRECT	28	48	426.014994178392
430.060295681117	3	84	INCORRECTLY	1.11715682488284	21	SURE_INCORRECT	50	0	430.060295681117
437.023538906117	3	85	INCORRECTLY	3.36996067988275	21	SURE_INCORRECT	72	0	437.023538906117
443.522555320117	3	86	INCORRECTLY	2.7066674538828	28	MAYBE_CORRECT	69	0	443.522555320117
447.567931553392	3	87	CORRECTLY	1.99464982760855	21	SURE_INCORRECT	18	34	447.567931553392
452.525064294392	2	88	CONTROL	1.9448128206086	10	n/a	1000	0	452.525064294392
455.55915229538	2	89	CONTROL	1.46606362562034	28	n/a	1000	0	455.55915229538
462.008506009107	3	90	INCORRECTLY	1.33695681089375	21	SURE_INCORRECT	61	0	462.008506009107
466.070297080391	2	91	CONTROL	1.84144408860902	21	n/a	1000	0	466.070297080391
470.513578717843	3	92	INCORRECTLY	1.93483842815749	21	SURE_INCORRECT	73	0	470.513578717843
474.575452411117	3	93	CORRECTLY	3.27655476988366	21	SURE_INCORRECT	29	52	474.575452411117
479.516051902117	3	94	CORRECTLY	2.17795762488277	21	SURE_INCORRECT	20	36	479.516051902117
484.522935806117	2	95	CONTROL	1.68946679588316	10	n/a	1000	0	484.522935806117
489.015958810117	3	96	CORRECTLY	1.89809504488312	21	SURE_INCORRECT	31	54	489.015958810117
493.077809927665	3	97	CORRECTLY	1.93530942833513	21	SURE_INCORRECT	23	40	493.077809927665
498.018435964117	3	98	CORRECTLY	1.19890146988291	21	SURE_INCORRECT	37	60	498.018435964117
502.511362887391	3	99	CORRECTLY	2.34169178760931	28	MAYBE_CORRECT	36	59	502.511362887391
506.573257707117	2	100	CONTROL	1.43222683588374	21	n/a	1000	0	506.573257707117
510.021791779392	3	101	INCORRECTLY	1.20007576660919	21	SURE_INCORRECT	54	0	510.021791779392
514.067054499666	3	102	CORRECTLY	1.50159612833522	21	SURE_INCORRECT	39	63	514.067054499666
518.062670964117	3	103	CORRECTLY	1.67991485688344	21	SURE_INCORRECT	33	56	518.062670964117
522.058241030117	3	104	CORRECTLY	2.20333649088388	21	SURE_INCORRECT	26	45	522.058241030117
