onset	duration	trial_number	trial_type	trial_type_coded	reaction_time	expected_response_coded	response	response_coded	accuracy	accuracy_scrambled	accuracy_task	rec_codes_during_enc	onset_probe	onset_noTriggerAdjust	onset_probe_noTriggerAdjust
0.0133924950200708	2	1	CONTROL	1	1.58623713509132	1	LEFT	5	1	1	0	0	0.0465223759088076	0.0133924950200708	0.0465223759088076
4.52287983124415	2	2	CONTROL	1	1.24643684998637	2	RIGHT	28	1	1	0	0	4.53951803801374	4.52287983124415	4.53951803801374
11.5193373041325	4	3	TASK	2	1.32571535220359	1	LEFT	5	1	0	1	16	12.5140634197965	11.5193373041325	12.5140634197965
19.5270529079085	2	4	CONTROL	1	0.830315226433868	1	LEFT	5	1	1	0	0	19.5437110215662	19.5270529079085	19.5437110215662
22.0636843799089	4	5	TASK	2	0.98015378197988	2	RIGHT	28	1	0	1	28	23.00866459702	22.0636843799089	23.00866459702
38.5102309071322	4	6	TASK	2	0.700165062217366	1	LEFT	5	1	0	1	1	39.5051481317828	38.5102309071322	39.5051481317828
49.5188026291321	2	7	CONTROL	1	0.774455410979954	2	RIGHT	28	1	1	0	0	49.5354728790203	49.5188026291321	49.5354728790203
56.5153093440204	2	8	CONTROL	1	1.06413662409841	2	RIGHT	28	1	1	0	0	56.5318572189017	56.5153093440204	56.5318572189017
66.0150965281323	4	9	TASK	2	0.881036643217158	2	RIGHT	28	1	0	1	33	67.0100004327828	66.0150965281323	67.0100004327828
70.5247139377966	2	10	CONTROL	1	0.929827316091632	2	RIGHT	28	1	1	0	0	70.5413141899085	70.5247139377966	70.5413141899085
76.0123962729085	4	11	TASK	2	0.905858871105011	2	RIGHT	28	1	0	1	17	77.0072101568949	76.0123962729085	77.0072101568949
81.51668379902	4	12	TASK	2	0.622693331091341	2	RIGHT	28	1	0	1	11	82.5114709549089	81.51668379902	82.5114709549089
92.5087265819088	4	13	TASK	2	0.50978964909109	1	LEFT	5	1	0	1	8	93.5200270329087	92.5087265819088	93.5200270329087
98.0129609989085	2	14	CONTROL	1	0.560207712203464	1	LEFT	5	1	1	0	0	98.0295370547965	98.0129609989085	98.0295370547965
104.528639893132	4	15	TASK	2	0.593016698105203	1	LEFT	5	1	0	1	5	105.506878328895	104.528639893132	105.506878328895
109.02159210502	2	16	CONTROL	1	1.32329268998001	1	LEFT	5	1	1	0	0	109.03819288402	109.02159210502	109.03819288402
112.02237939402	2	17	CONTROL	1	0.706186049203552	2	RIGHT	28	1	1	0	0	112.039027423797	112.02237939402	112.039027423797
118.504996236783	4	18	TASK	2	0.81951867709131	2	RIGHT	28	1	0	1	25	119.516271411909	118.504996236783	119.516271411909
125.02055423402	2	19	CONTROL	1	0.628643460979674	1	LEFT	5	1	1	0	0	125.03706470802	125.02055423402	125.03706470802
129.01615822902	4	20	TASK	2	0.646160373091334	1	LEFT	5	1	0	1	21	130.010811501909	129.01615822902	130.010811501909
135.017759767909	4	21	TASK	2	0.940023727867811	2	RIGHT	28	1	0	1	35	136.012477889132	135.017759767909	136.012477889132
151.016732385909	4	22	TASK	2	0.714588751091469	1	LEFT	5	1	0	1	4	152.011458193909	151.016732385909	152.011458193909
155.526298364909	4	23	TASK	2	0.683805984091123	2	RIGHT	28	1	0	1	34	156.521007613909	155.526298364909	156.521007613909
161.013964982909	2	24	CONTROL	1	0.915925469979811	2	RIGHT	28	1	1	0	0	161.03057950302	161.013964982909	161.03057950302
165.026130707132	2	25	CONTROL	1	0.595242237979619	1	LEFT	5	1	1	0	0	165.04271305202	165.026130707132	165.04271305202
174.509450134909	2	26	CONTROL	1	0.727793275210388	2	RIGHT	28	1	1	0	0	174.52605313879	174.509450134909	174.52605313879
179.516368828909	2	27	CONTROL	1	0.720915821209928	2	RIGHT	28	1	1	0	0	179.53294507079	179.516368828909	179.53294507079
182.052968304797	4	28	TASK	2	0.643835564091205	2	RIGHT	28	1	0	1	15	183.014532228909	182.052968304797	183.014532228909
189.016268944797	2	29	CONTROL	1	1.05696677409151	2	RIGHT	28	1	1	0	0	189.032817417909	189.016268944797	189.032817417909
193.011842830909	4	30	TASK	2	0.576433319091393	2	RIGHT	28	1	0	1	36	194.006593258909	193.011842830909	194.006593258909
202.014294731909	4	31	TASK	2	0.805261948216867	2	RIGHT	28	1	0	1	14	203.009180656783	202.014294731909	203.009180656783
209.508172499909	4	32	TASK	2	0.72133864809166	1	LEFT	5	1	0	1	77	210.519492039909	209.508172499909	210.519492039909
216.02377520002	2	33	CONTROL	1	1.09053809609168	2	RIGHT	28	1	1	0	0	216.040355451908	216.02377520002	216.040355451908
220.516645927468	4	34	TASK	2	0.692875402091431	1	LEFT	5	1	0	1	87	221.511490645908	220.516645927468	221.511490645908
226.020975915132	4	35	TASK	2	0.865675469980033	1	LEFT	5	1	0	1	73	227.01571214302	226.020975915132	227.01571214302
240.01384314902	4	36	TASK	2	0.968394063867891	1	LEFT	5	1	0	1	94	241.008545018132	240.01384314902	241.008545018132
254.023240469909	4	37	TASK	2	0.849296059203425	1	LEFT	5	1	0	1	64	255.018075275796	254.023240469909	255.018075275796
261.517080112909	4	38	TASK	2	0.64796608809138	2	RIGHT	28	1	0	1	69	262.511831462909	261.517080112909	262.511831462909
280.019441962909	2	39	CONTROL	1	0.692129333433513	1	LEFT	5	1	1	0	0	280.036085672567	280.019441962909	280.036085672567
283.020248102132	4	40	TASK	2	0.844866055979764	2	RIGHT	28	1	0	1	97	284.01506903502	283.020248102132	284.01506903502
292.02275118802	4	41	TASK	2	0.784761570210321	1	LEFT	5	1	0	1	63	293.01764069479	292.02275118802	293.01764069479
297.527104178909	2	42	CONTROL	1	1.07661332297948	1	LEFT	5	1	1	0	0	297.54372900502	297.527104178909	297.54372900502
305.51832207602	2	43	CONTROL	1	0.593860116105134	1	LEFT	5	1	1	0	0	305.534937888895	305.51832207602	305.534937888895
316.526810064132	4	44	TASK	2	0.654606175216941	1	LEFT	5	1	0	1	70	317.505106672783	316.526810064132	317.505106672783
324.02068835502	4	45	TASK	2	1.03093474509114	1	LEFT	5	1	0	1	104	325.015393249909	324.02068835502	325.015393249909
331.017123962797	2	46	CONTROL	1	0.572338460091032	1	LEFT	5	1	1	0	0	331.033659377909	331.017123962797	331.033659377909
336.52138459502	4	47	TASK	2	0.843598308091259	2	RIGHT	28	1	0	1	45	337.516121636909	336.52138459502	337.516121636909
347.016014527909	4	48	TASK	2	0.907124207091329	2	RIGHT	28	1	0	1	83	348.010728530909	347.016014527909	348.010728530909
358.024623769908	2	49	CONTROL	1	0.67343225632203	1	LEFT	5	1	1	0	0	358.041232447678	358.024623769908	358.041232447678
363.015002172909	2	50	CONTROL	1	0.755359090322145	2	RIGHT	28	1	1	0	0	363.031527045678	363.015002172909	363.031527045678
370.50868938902	2	51	CONTROL	1	0.774474130322233	2	RIGHT	28	1	1	0	0	370.525348323678	370.50868938902	370.525348323678
376.510516919783	4	52	TASK	2	1.09960704221703	2	RIGHT	28	1	0	1	93	377.505281404783	376.510516919783	377.505281404783
383.52344463602	4	53	TASK	2	0.93890259810496	1	LEFT	5	1	0	1	46	384.518233781895	383.52344463602	384.518233781895
390.519842317797	4	54	TASK	2	0.666608212216943	2	RIGHT	28	1	0	1	96	391.514715068783	390.519842317797	391.514715068783
405.026590251132	4	55	TASK	2	0.977183906328719	2	RIGHT	28	1	0	1	49	406.004921793671	405.026590251132	406.004921793671
412.02306195202	4	56	TASK	2	0.75236332509121	2	RIGHT	28	1	0	1	103	413.017828418909	412.02306195202	413.017828418909
418.52205704702	4	57	TASK	2	0.716211949979879	2	RIGHT	28	1	0	1	66	419.51683711102	418.52205704702	419.51683711102
429.51406542902	4	58	TASK	2	0.783192324216998	2	RIGHT	28	1	0	1	48	430.508995985783	429.51406542902	430.508995985783
443.52354489302	4	59	TASK	2	0.651563873217128	2	RIGHT	28	1	0	1	99	444.518333124783	443.52354489302	444.518333124783
448.033112889909	4	60	TASK	2	1.00285166486765	1	LEFT	5	1	0	1	98	449.011198915132	448.033112889909	449.011198915132
453.023361399132	4	61	TASK	2	0.524371299867653	2	RIGHT	28	1	0	1	62	454.018118654132	453.023361399132	454.018118654132
459.522429561132	2	62	CONTROL	1	0.849407544433689	1	LEFT	5	1	1	0	0	459.539147737567	459.522429561132	459.539147737567
465.010266068783	4	63	TASK	2	0.557029103104924	1	LEFT	5	1	0	1	102	466.005007152895	465.010266068783	466.005007152895
473.515279844132	4	64	TASK	2	1.21575967932858	2	RIGHT	28	1	0	1	82	474.510188255671	473.515279844132	474.510188255671
