onset	duration	trial_number	trial_type	trial_type_coded	reaction_time	expected_response_coded	response	response_coded	accuracy	accuracy_scrambled	accuracy_task	rec_codes_during_enc	onset_probe	onset_noTriggerAdjust	onset_probe_noTriggerAdjust
0.0133620750711998	2	1	CONTROL	1	1.17035635192951	1	LEFT	5	1	1	0	0	0.0465170720708556	0.0133620750711998	0.0465170720708556
4.52297321007063	2	2	CONTROL	1	1.06918687192774	2	RIGHT	28	1	1	0	0	4.53953440907208	4.52297321007063	4.53953440907208
11.5193573140714	4	3	TASK	2	2.11410259400145	1	LEFT	5	1	0	1	16	12.5141044769989	11.5193573140714	12.5141044769989
19.5106210397498	2	4	CONTROL	1	0.807566929286622	1	LEFT	5	1	1	0	0	19.5271975307132	19.5106210397498	19.5271975307132
22.0472130817125	4	5	TASK	2	1.89092976625034	2	RIGHT	28	1	0	1	28	23.0088367507487	22.0472130817125	23.0088367507487
38.5104125305352	4	6	TASK	2	1.94378330025029	1	LEFT	5	1	0	1	1	39.5051605687495	38.5104125305352	39.5051605687495
49.5189952727123	2	7	CONTROL	1	0.782455667285831	2	RIGHT	28	1	1	0	0	49.535548023714	49.5189952727123	49.535548023714
56.5153849507133	2	8	CONTROL	1	0.892946859250515	2	RIGHT	28	1	1	0	0	56.5320345917498	56.5153849507133	56.5320345917498
66.0152788307496	4	9	TASK	2	1.21936785428625	2	RIGHT	28	1	0	1	33	67.0100066827126	66.0152788307496	67.0100066827126
70.5248144097495	2	10	CONTROL	1	1.71438966028654	2	RIGHT	28	1	1	0	0	70.541355890713	70.5248144097495	70.541355890713
76.0125210347123	4	11	TASK	2	1.58646401528677	2	RIGHT	28	1	0	1	17	77.0072785877128	76.0125210347123	77.0072785877128
81.5167955987126	4	12	TASK	2	2.10834138328573	2	RIGHT	28	1	0	1	11	82.5115486927134	81.5167955987126	82.5115486927134
92.5088835137503	4	13	TASK	2	1.31264263228513	1	LEFT	5	1	0	1	8	93.5201734227139	92.5088835137503	93.5201734227139
98.0131310287125	2	14	CONTROL	1	1.10200784928566	1	LEFT	5	1	1	0	0	98.0296884847139	98.0131310287125	98.0296884847139
104.512167433713	4	15	TASK	2	1.4828299242854	1	LEFT	5	1	0	1	5	105.506919629714	104.512167433713	105.506919629714
109.021716601714	2	16	CONTROL	1	1.53739716028576	1	LEFT	5	1	1	0	0	109.038291273713	109.021716601714	109.038291273713
112.022533624713	2	17	CONTROL	1	0.736190639287088	2	RIGHT	28	1	1	0	0	112.039099660713	112.022533624713	112.039099660713
118.521597436713	4	18	TASK	2	1.10901396028567	2	RIGHT	28	1	0	1	25	119.516347106714	118.521597436713	119.516347106714
125.020626267713	2	19	CONTROL	1	1.19140539428554	1	LEFT	5	1	1	0	0	125.037191233714	125.020626267713	125.037191233714
129.016223046714	4	20	TASK	2	1.32746968928586	1	LEFT	5	1	0	1	21	130.011037905713	129.016223046714	130.011037905713
135.01791178175	4	21	TASK	2	1.96600283325097	2	RIGHT	28	1	0	1	35	136.012688829749	135.01791178175	136.012688829749
151.016813549713	4	22	TASK	2	1.17057979396486	1	LEFT	5	1	0	1	4	152.011511201035	151.016813549713	152.011511201035
155.526311426071	4	23	TASK	2	1.44400422292892	2	RIGHT	28	1	0	1	34	156.520990515071	155.526311426071	156.520990515071
161.01408917775	2	24	CONTROL	1	0.949420701250347	2	RIGHT	28	1	1	0	0	161.030683374749	161.01408917775	161.030683374749
165.026246146714	2	25	CONTROL	1	0.962145613286339	1	LEFT	5	1	1	0	0	165.042805282714	165.026246146714	165.042805282714
174.509543629712	2	26	CONTROL	1	0.629804650250662	2	RIGHT	28	1	1	0	0	174.52615038675	174.509543629712	174.52615038675
179.516485797712	2	27	CONTROL	1	0.977384655287096	2	RIGHT	28	1	1	0	0	179.533068293713	179.516485797712	179.533068293713
182.052957821035	4	28	TASK	2	1.03041048328669	2	RIGHT	28	1	0	1	15	183.014662099713	182.052957821035	183.014662099713
189.016244457036	2	29	CONTROL	1	0.76199730549888	2	RIGHT	28	1	1	0	0	189.0329451825	189.016244457036	189.0329451825
193.028469055071	4	30	TASK	2	1.08242028685709	2	RIGHT	28	1	0	1	36	194.006579704142	193.028469055071	194.006579704142
202.014413419749	4	31	TASK	2	1.22129503828728	2	RIGHT	28	1	0	1	14	203.009209185713	202.014413419749	203.009209185713
209.508262411713	4	32	TASK	2	1.06720190624947	1	LEFT	5	1	0	1	77	210.519589521749	209.508262411713	210.519589521749
216.007286013713	2	33	CONTROL	1	0.834429146250841	2	RIGHT	28	1	1	0	0	216.023919144749	216.007286013713	216.023919144749
220.516756831035	4	34	TASK	2	0.817493567963538	1	LEFT	5	1	0	1	87	221.511537043036	220.516756831035	221.511537043036
226.021034556035	4	35	TASK	2	1.59488054196481	1	LEFT	5	1	0	1	73	227.015840101036	226.021034556035	227.015840101036
240.013848854	4	36	TASK	2	0.793121497285028	1	LEFT	5	1	0	1	94	241.008728656714	240.013848854	241.008728656714
254.006855258749	4	37	TASK	2	0.929779663285444	1	LEFT	5	1	0	1	64	255.018136566714	254.006855258749	255.018136566714
261.517174184106	4	38	TASK	2	1.56393909696453	2	RIGHT	28	1	0	1	69	262.511893532035	261.517174184106	262.511893532035
280.019463548999	2	39	CONTROL	1	0.777762367464675	1	LEFT	5	1	1	0	0	280.036140439535	280.019463548999	280.036140439535
283.020365422035	4	40	TASK	2	0.751863189927462	2	RIGHT	28	1	0	1	97	284.015132243072	283.020365422035	284.015132243072
292.022894089714	4	41	TASK	2	1.06645903328717	1	LEFT	5	1	0	1	63	293.017654557712	292.022894089714	293.017654557712
297.527079539999	2	42	CONTROL	1	1.06217549250141	1	LEFT	5	1	1	0	0	297.543805597499	297.527079539999	297.543805597499
305.518298480036	2	43	CONTROL	1	0.798569888927886	1	LEFT	5	1	1	0	0	305.534937071072	305.518298480036	305.534937071072
316.510364374713	4	44	TASK	2	0.670643174929864	1	LEFT	5	1	0	1	70	317.52169585207	316.510364374713	317.52169585207
324.020754149071	4	45	TASK	2	0.996855858964409	1	LEFT	5	1	0	1	104	325.015485557034	324.020754149071	325.015485557034
331.017127760071	2	46	CONTROL	1	0.871515549928517	1	LEFT	5	1	1	0	0	331.033695675071	331.017127760071	331.033695675071
336.521426488034	4	47	TASK	2	0.786658090286437	2	RIGHT	28	1	0	1	45	337.516237280714	336.521426488034	337.516237280714
347.016085130072	4	48	TASK	2	0.569954028927896	2	RIGHT	28	1	0	1	83	348.010796754072	347.016085130072	348.010796754072
358.024701129107	2	49	CONTROL	1	0.614847181535879	1	LEFT	5	1	1	0	0	358.041250581464	358.024701129107	358.041250581464
363.014932957072	2	50	CONTROL	1	0.5147891117158	2	RIGHT	28	1	1	0	0	363.031551837284	363.014932957072	363.031551837284
370.508788251034	2	51	CONTROL	1	0.543421723285064	2	RIGHT	28	1	1	0	0	370.525393879714	370.508788251034	370.525393879714
376.510577115749	4	52	TASK	2	0.775051753251319	2	RIGHT	28	1	0	1	93	377.505300693749	376.510577115749	377.505300693749
383.523483067071	4	53	TASK	2	1.12656411796524	1	LEFT	5	1	0	1	46	384.518225472035	383.523483067071	384.518225472035
390.519918784072	4	54	TASK	2	1.0113623479283	2	RIGHT	28	1	0	1	96	391.514592513071	390.519918784072	391.514592513071
405.010045374034	4	55	TASK	2	0.679833724536365	2	RIGHT	28	1	0	1	49	406.004877280464	405.010045374034	406.004877280464
412.023091298071	4	56	TASK	2	0.664008503965306	2	RIGHT	28	1	0	1	103	413.017806927035	412.023091298071	413.017806927035
418.522081308998	4	57	TASK	2	0.546931130964367	2	RIGHT	28	1	0	1	66	419.516874566036	418.522081308998	419.516874566036
429.514113357036	4	58	TASK	2	0.809761518643427	2	RIGHT	28	1	0	1	48	430.508925487356	429.514113357036	430.508925487356
443.506992938035	4	59	TASK	2	0.562598870965303	2	RIGHT	28	1	0	1	99	444.518329007034	443.506992938035	444.518329007034
448.033084431072	4	60	TASK	2	1.30544982996435	1	LEFT	5	1	0	1	98	449.011319452035	448.033084431072	449.011319452035
453.023456277999	4	61	TASK	2	1.16915156496361	2	RIGHT	28	1	0	1	62	454.018161534035	453.023456277999	454.018161534035
459.505926817035	2	62	CONTROL	1	0.595368796000912	1	LEFT	5	1	1	0	0	459.522450567998	459.505926817035	459.522450567998
465.010226951072	4	63	TASK	2	0.604841310250777	1	LEFT	5	1	0	1	102	466.005058587749	465.010226951072	466.005058587749
473.515332316036	4	64	TASK	2	1.0146644549277	2	RIGHT	28	1	0	1	82	474.510121793071	473.515332316036	474.510121793071
