onset	duration	trial_number	trial_type	trial_type_coded	reaction_time	expected_response_coded	response	response_coded	accuracy	accuracy_scrambled	accuracy_task	rec_codes_during_enc	onset_probe	onset_noTriggerAdjust	onset_probe_noTriggerAdjust
0.0133882781506145	2	1	CONTROL	1	1.44537965684958	1	LEFT	5	1	1	0	0	0.0465089241506575	0.0133882781506145	0.0465089241506575
4.52294031950987	2	2	CONTROL	1	1.26523884366998	2	RIGHT	28	1	1	0	0	4.53953850733024	4.52294031950987	4.53953850733024
11.5193160929712	4	3	TASK	2	2.93415538284899	1	LEFT	5	1	0	1	16	12.5141551701508	11.5193160929712	12.5141551701508
19.510490958151	2	4	CONTROL	1	0.990407348412191	1	LEFT	5	1	1	0	0	19.5271700575877	19.510490958151	19.5271700575877
22.0471838771509	4	5	TASK	2	1.60065996566982	2	RIGHT	28	1	0	1	28	23.0087267173303	22.0471838771509	23.0087267173303
38.5102666701509	4	6	TASK	2	1.37899012566959	1	LEFT	5	1	0	1	1	39.5050782553303	38.5102666701509	39.5050782553303
49.5188996641509	2	7	CONTROL	1	1.52413163848996	2	RIGHT	28	1	1	0	0	49.53551687551	49.5188996641509	49.53551687551
56.515255492151	2	8	CONTROL	1	1.55612808269416	2	RIGHT	28	1	1	0	0	56.531983719306	56.515255492151	56.531983719306
66.0152455575635	4	9	TASK	2	2.13039732902871	2	RIGHT	28	1	0	1	33	67.0099004759713	66.0152455575635	67.0099004759713
70.5247602091508	2	10	CONTROL	1	0.975483801669725	2	RIGHT	28	1	1	0	0	70.5413329853304	70.5247602091508	70.5413329853304
76.0124323953305	4	11	TASK	2	1.24042693243655	2	RIGHT	28	1	0	1	17	77.0072351795634	76.0124323953305	77.0072351795634
81.5166884629712	4	12	TASK	2	1.46521310084927	2	RIGHT	28	1	0	1	11	82.5114808081507	81.5166884629712	82.5114808081507
92.5087406763305	4	13	TASK	2	1.22981247266944	1	LEFT	5	1	0	1	8	93.5201295663305	92.5087406763305	93.5201295663305
98.0129924601506	2	14	CONTROL	1	0.821525933490193	1	LEFT	5	1	1	0	0	98.0296576495098	98.0129924601506	98.0296576495098
104.51203985533	4	15	TASK	2	1.34520926843652	1	LEFT	5	1	0	1	5	105.506884466563	104.51203985533	105.506884466563
109.02168359951	2	16	CONTROL	1	1.25569206049022	1	LEFT	5	1	1	0	0	109.03821794751	109.02168359951	109.03821794751
112.022457323151	2	17	CONTROL	1	1.3070039868494	2	RIGHT	28	1	1	0	0	112.039062483151	112.022457323151	112.039062483151
118.52154806851	4	18	TASK	2	1.22629674005339	2	RIGHT	28	1	0	1	25	119.516306775947	118.52154806851	119.516306775947
125.020524044151	2	19	CONTROL	1	0.902334080873516	1	LEFT	5	1	1	0	0	125.037164994127	125.020524044151	125.037164994127
129.016119926151	4	20	TASK	2	1.10872296367006	1	LEFT	5	1	0	1	21	130.01086359833	129.016119926151	130.01086359833
135.01781681533	4	21	TASK	2	1.10672819066986	2	RIGHT	28	1	0	1	35	136.01259964333	135.01781681533	136.01259964333
151.01671248051	4	22	TASK	2	1.78543337205383	1	LEFT	5	1	0	1	4	152.011550052946	151.01671248051	152.011550052946
155.52624445333	4	23	TASK	2	1.04788485684912	2	RIGHT	28	1	0	1	34	156.520987207151	155.52624445333	156.520987207151
161.013964433151	2	24	CONTROL	1	1.04534345802904	2	RIGHT	28	1	1	0	0	161.030523827971	161.013964433151	161.030523827971
165.02620692033	2	25	CONTROL	1	0.931877965849253	1	LEFT	5	1	1	0	0	165.042709249151	165.02620692033	165.042709249151
174.52601962933	2	26	CONTROL	1	0.987369471436523	2	RIGHT	28	1	1	0	0	174.542687698563	174.52601962933	174.542687698563
179.51634368633	2	27	CONTROL	1	1.26762943166932	2	RIGHT	28	1	1	0	0	179.532951321331	179.51634368633	179.532951321331
182.052956080971	4	28	TASK	2	1.2450008514902	2	RIGHT	28	1	0	1	15	183.01462591451	182.052956080971	183.01462591451
189.016224274151	2	29	CONTROL	1	1.17465322666976	2	RIGHT	28	1	1	0	0	189.03286242133	189.016224274151	189.03286242133
193.011853765689	4	30	TASK	2	1.00146517307758	2	RIGHT	28	1	0	1	36	194.006744626922	193.011853765689	194.006744626922
202.014406854563	4	31	TASK	2	1.39760845049022	2	RIGHT	28	1	0	1	14	203.00915988051	202.014406854563	203.00915988051
209.508112747151	4	32	TASK	2	1.52407106943656	1	LEFT	5	1	0	1	77	210.519626888563	209.508112747151	210.519626888563
216.00726295551	2	33	CONTROL	1	1.27795251833504	2	RIGHT	28	1	1	0	0	216.023872288665	216.00726295551	216.023872288665
220.516829094743	4	34	TASK	2	1.49075582684918	1	LEFT	5	1	0	1	87	221.511458579151	220.516829094743	221.511458579151
226.02109724233	4	35	TASK	2	1.22117934749031	1	LEFT	5	1	0	1	73	227.01584674451	226.02109724233	227.01584674451
240.013921457151	4	36	TASK	2	1.51901417405315	1	LEFT	5	1	0	1	94	241.008726858947	240.013921457151	241.008726858947
254.02333686633	4	37	TASK	2	1.23054727966974	1	LEFT	5	1	0	1	64	255.018102180331	254.02333686633	255.018102180331
261.51706403333	4	38	TASK	2	1.09692513066966	2	RIGHT	28	1	0	1	69	262.511820965331	261.51706403333	262.511820965331
280.019439877971	2	39	CONTROL	1	1.13233565651444	1	LEFT	5	1	1	0	0	280.036127953485	280.019439877971	280.036127953485
283.02034130733	4	40	TASK	2	1.06076067666982	2	RIGHT	28	1	0	1	97	284.01510360533	283.02034130733	284.01510360533
292.02285797433	4	41	TASK	2	1.09006029666989	1	LEFT	5	1	0	1	63	293.01756925033	292.02285797433	293.01756925033
297.52717457251	2	42	CONTROL	1	1.07610498566964	1	LEFT	5	1	1	0	0	297.54373939433	297.52717457251	297.54373939433
305.51832010833	2	43	CONTROL	1	1.03647737684878	1	LEFT	5	1	1	0	0	305.534929460151	305.51832010833	305.534929460151
316.526937142331	4	44	TASK	2	1.09451603243633	1	LEFT	5	1	0	1	70	317.505129993564	316.526937142331	317.505129993564
324.02068240733	4	45	TASK	2	1.1571963038491	1	LEFT	5	1	0	1	104	325.015451679151	324.02068240733	325.015451679151
331.01717511451	2	46	CONTROL	1	1.18812422902874	1	LEFT	5	1	1	0	0	331.033655389971	331.01717511451	331.033655389971
336.52146770051	4	47	TASK	2	1.53795889802905	2	RIGHT	28	1	0	1	45	337.516170820971	336.52146770051	337.516170820971
347.01605141833	4	48	TASK	2	1.00062278866972	2	RIGHT	28	1	0	1	83	348.01083930533	347.01605141833	348.01083930533
358.02468467733	2	49	CONTROL	1	1.01449532259221	1	LEFT	5	1	1	0	0	358.041247535408	358.02468467733	358.041247535408
363.014919817151	2	50	CONTROL	1	0.940167376436875	2	RIGHT	28	1	1	0	0	363.031643530563	363.014919817151	363.031643530563
370.52535003333	2	51	CONTROL	1	1.15381525951443	2	RIGHT	28	1	1	0	0	370.541992607486	370.52535003333	370.541992607486
376.526983527971	4	52	TASK	2	1.55936210587333	2	RIGHT	28	1	0	1	93	377.505288557127	376.526983527971	377.505288557127
383.523390102971	4	53	TASK	2	1.27634203566959	1	LEFT	5	1	0	1	46	384.51816071733	383.523390102971	384.51816071733
390.51982123633	4	54	TASK	2	0.978956000233211	2	RIGHT	28	1	0	1	96	391.514637720767	390.51982123633	391.514637720767
405.01013488233	4	55	TASK	2	1.17791111084944	2	RIGHT	28	1	0	1	49	406.021411135151	405.01013488233	406.021411135151
412.006525388151	4	56	TASK	2	1.65675177684943	2	RIGHT	28	1	0	1	103	413.017859836151	412.006525388151	413.017859836151
418.522081041151	4	57	TASK	2	0.705717985514639	2	RIGHT	28	1	0	1	66	419.516992081486	418.522081041151	419.516992081486
429.51413334333	4	58	TASK	2	0.94205399243674	2	RIGHT	28	1	0	1	48	430.508943671563	429.51413334333	430.508943671563
443.52357134033	4	59	TASK	2	1.0461627378495	2	RIGHT	28	1	0	1	99	444.518343777151	443.52357134033	444.518343777151
448.033155481151	4	60	TASK	2	0.911794204848775	1	LEFT	5	1	0	1	98	449.011303575151	448.033155481151	449.011303575151
453.02345808733	4	61	TASK	2	1.39657651984908	2	RIGHT	28	1	0	1	62	454.018190837151	453.02345808733	454.018190837151
459.522517417151	2	62	CONTROL	1	1.3238651548495	1	LEFT	5	1	1	0	0	459.539042704151	459.522517417151	459.539042704151
465.010294865743	4	63	TASK	2	0.990619130257528	1	LEFT	5	1	0	1	102	466.005048338743	465.010294865743	466.005048338743
473.515327774971	4	64	TASK	2	1.14261685566998	2	RIGHT	28	1	0	1	82	474.51008708933	473.515327774971	474.51008708933
