onset	duration	trial_number	trial_type	trial_type_coded	reaction_time	expected_response_coded	response	response_coded	accuracy	accuracy_scrambled	accuracy_task	rec_codes_during_enc	onset_probe	onset_noTriggerAdjust	onset_probe_noTriggerAdjust
0.0133525314413419	2	1	CONTROL	1	n/a	1	n/a	n/a	0	0	0	0	0.0466174312041403	0.0133525314413419	0.0466174312041403
4.52286803816605	2	2	CONTROL	1	1.23918723555835	2	RIGHT	28	1	1	0	0	4.53948343044158	4.52286803816605	4.53948343044158
11.5193507871654	4	3	TASK	2	2.23155099883479	1	LEFT	5	1	0	1	16	12.5140186821654	11.5193507871654	12.5140186821654
19.5104755611655	2	4	CONTROL	1	0.873099003834795	1	LEFT	5	1	1	0	0	19.5271065901652	19.5104755611655	19.5271065901652
22.047058968441	4	5	TASK	2	1.95923487128312	2	LEFT	5	0	0	0	28	23.0086577457168	22.047058968441	23.0086577457168
38.5268256264417	4	6	TASK	2	1.03900903831436	1	LEFT	5	1	0	1	1	39.5050596616857	38.5268256264417	39.5050596616857
49.5188890141653	2	7	CONTROL	1	1.60681727258998	2	RIGHT	28	1	1	0	0	49.53548104941	49.5188890141653	49.53548104941
56.5152539301653	2	8	CONTROL	1	n/a	2	n/a	n/a	0	0	0	0	56.5318771208586	56.5152539301653	56.5318771208586
66.0151098241658	4	9	TASK	2	0.27794027507025	2	RIGHT	28	1	0	1	33	67.0099694569299	66.0151098241658	67.0099694569299
70.524686029441	2	10	CONTROL	1	0.970375383282772	2	RIGHT	28	1	1	0	0	70.5412423377174	70.524686029441	70.5412423377174
76.0124043408896	4	11	TASK	2	1.03625376407035	2	RIGHT	28	1	0	1	17	77.0072766019293	76.0124043408896	77.0072766019293
81.5166449141652	4	12	TASK	2	0.877009695834204	2	RIGHT	28	1	0	1	11	82.511473512166	81.5166449141652	82.511473512166
92.5087070821655	4	13	TASK	2	0.823406526834333	1	LEFT	5	1	0	1	8	93.5200162101655	92.5087070821655	93.5200162101655
98.0130047891653	2	14	CONTROL	1	1.74062311683429	1	LEFT	5	1	1	0	0	98.0295890011657	98.0130047891653	98.0295890011657
104.512016029442	4	15	TASK	2	0.655005464795067	1	LEFT	5	1	0	1	5	105.506872385205	104.512016029442	105.506872385205
109.02162700089	2	16	CONTROL	1	0.894542276558241	1	LEFT	5	1	1	0	0	109.038156843441	109.02162700089	109.038156843441
112.022469712441	2	17	CONTROL	1	1.27428114428312	2	RIGHT	28	1	1	0	0	112.038951106717	112.022469712441	112.038951106717
118.521469827441	4	18	TASK	2	0.922251194559067	2	RIGHT	28	1	0	1	25	119.516229046441	118.521469827441	119.516229046441
125.020456645717	2	19	CONTROL	1	2.15339622355896	1	LEFT	5	1	1	0	0	125.037039267441	125.020456645717	125.037039267441
129.016086770717	4	20	TASK	2	0.61384204155911	1	LEFT	5	1	0	1	21	130.010853083441	129.016086770717	130.010853083441
135.017746830165	4	21	TASK	2	0.598054298834541	2	RIGHT	28	1	0	1	35	136.012536534166	135.017746830165	136.012536534166
151.016735178166	4	22	TASK	2	1.07106799279609	1	LEFT	5	1	0	1	4	152.011544931204	151.016735178166	152.011544931204
155.526238443165	4	23	TASK	2	1.41418003583385	2	RIGHT	28	1	0	1	34	156.520957243166	155.526238443165	156.520957243166
161.013978772441	2	24	CONTROL	1	1.46808842383507	2	RIGHT	28	1	1	0	0	161.030543221165	161.013978772441	161.030543221165
165.026149925166	2	25	CONTROL	1	n/a	1	n/a	n/a	0	0	0	0	165.042688323441	165.026149925166	165.042688323441
174.509389571442	2	26	CONTROL	1	0.578726393386205	2	RIGHT	28	1	1	0	0	174.526063166614	174.509389571442	174.526063166614
179.516370188166	2	27	CONTROL	1	0.591528536558144	2	RIGHT	28	1	1	0	0	179.532956929442	179.516370188166	179.532956929442
182.052946208441	4	28	TASK	2	0.511894585110895	2	RIGHT	28	1	0	1	15	183.01458043089	182.052946208441	183.01458043089
189.01626156389	2	29	CONTROL	1	1.36816921286572	2	RIGHT	28	1	1	0	0	189.032815458134	189.01626156389	189.032815458134
193.011885568204	4	30	TASK	2	1.63559473907117	2	RIGHT	28	1	0	1	36	194.006646047929	193.011885568204	194.006646047929
202.014281947166	4	31	TASK	2	0.986997499558129	2	RIGHT	28	1	0	1	14	203.009046079442	202.014281947166	203.009046079442
209.50815888189	4	32	TASK	2	1.00528527328242	1	LEFT	5	1	0	1	77	210.519388819717	209.50815888189	210.519388819717
216.007138004165	2	33	CONTROL	1	n/a	2	n/a	n/a	0	0	0	0	216.023709574717	216.007138004165	216.023709574717
220.516650057717	4	34	TASK	2	1.18149588255892	1	LEFT	5	1	0	1	87	221.511408421441	220.516650057717	221.511408421441
226.021047238441	4	35	TASK	2	0.604892195834509	1	LEFT	5	1	0	1	73	227.015739026166	226.021047238441	227.015739026166
240.013832887165	4	36	TASK	2	0.678083695795067	1	LEFT	5	1	0	1	94	241.008692212205	240.013832887165	241.008692212205
254.023255906717	4	37	TASK	2	1.21245892607021	1	LEFT	5	1	0	1	64	255.01809958093	254.023255906717	255.01809958093
261.517071743441	4	38	TASK	2	2.5644457168346	2	RIGHT	28	1	0	1	69	262.511789571166	261.517071743441	262.511789571166
280.019450754166	2	39	CONTROL	1	2.15150082955824	1	LEFT	5	1	1	0	0	280.036072009441	280.019450754166	280.036072009441
283.020240978717	4	40	TASK	2	1.14957189655888	2	RIGHT	28	1	0	1	97	284.014995909441	283.020240978717	284.014995909441
292.022842982889	4	41	TASK	2	0.789561090558891	1	LEFT	5	1	0	1	63	293.017577558441	292.022842982889	293.017577558441
297.527035713441	2	42	CONTROL	1	1.47522614255922	1	LEFT	5	1	1	0	0	297.543647628441	297.527035713441	297.543647628441
305.518242622717	2	43	CONTROL	1	1.05029086011018	1	LEFT	5	1	1	0	0	305.53487110389	305.518242622717	305.53487110389
316.510306363614	4	44	TASK	2	n/a	1	n/a	n/a	0	0	0	70	317.505072054204	316.510306363614	317.505072054204
324.020679809441	4	45	TASK	2	1.14702417955868	1	LEFT	5	1	0	1	104	325.015404849441	324.020679809441	325.015404849441
331.017099529441	2	46	CONTROL	1	1.10975510455864	1	LEFT	5	1	1	0	0	331.033679240441	331.017099529441	331.033679240441
336.521355878717	4	47	TASK	2	0.675240903660779	2	RIGHT	28	1	0	1	45	337.516185835339	336.521355878717	337.516185835339
347.016004131166	4	48	TASK	2	0.709781045038653	2	RIGHT	28	1	0	1	83	348.010797680961	347.016004131166	348.010797680961
358.008038500441	2	49	CONTROL	1	0.655304722795336	1	LEFT	5	1	1	0	0	358.024626808205	358.008038500441	358.024626808205
363.014932223165	2	50	CONTROL	1	0.573485222834279	2	RIGHT	28	1	1	0	0	363.031504388166	363.014932223165	363.031504388166
370.508775821685	2	51	CONTROL	1	0.60529629186567	2	RIGHT	28	1	1	0	0	370.525382659134	370.508775821685	370.525382659134
376.510488894204	4	52	TASK	2	1.77524430406993	2	RIGHT	28	1	0	1	93	377.50523619393	376.510488894204	377.50523619393
383.523376439442	4	53	TASK	2	1.03928262655791	1	LEFT	5	1	0	1	46	384.518121794442	383.523376439442	384.518121794442
390.519777169441	4	54	TASK	2	0.621534770559265	2	RIGHT	28	1	0	1	96	391.514533214441	390.519777169441	391.514533214441
405.010002938166	4	55	TASK	2	2.02361892469253	2	RIGHT	28	1	0	1	49	406.004834376307	405.010002938166	406.004834376307
412.023006853441	4	56	TASK	2	0.660883163558537	2	RIGHT	28	1	0	1	103	413.017754445442	412.023006853441	413.017754445442
418.522111212165	4	57	TASK	2	2.18497515555919	2	RIGHT	28	1	0	1	66	419.516834172441	418.522111212165	419.516834172441
429.514110511165	4	58	TASK	2	1.34173907376407	2	RIGHT	28	1	0	1	48	430.508875404236	429.514110511165	430.508875404236
443.523478122717	4	59	TASK	2	1.3982647498342	2	RIGHT	28	1	0	1	99	444.518258448165	443.523478122717	444.518258448165
448.033105300859	4	60	TASK	2	0.787971930558342	1	LEFT	5	1	0	1	98	449.011188533442	448.033105300859	449.011188533442
453.023391453441	4	61	TASK	2	0.542457425558496	2	RIGHT	28	1	0	1	62	454.018124231441	453.023391453441	454.018124231441
459.50590423189	2	62	CONTROL	1	0.693145590558743	1	LEFT	5	1	1	0	0	459.522414561441	459.50590423189	459.522414561441
465.01020554989	4	63	TASK	2	0.596673116558122	1	LEFT	5	1	0	1	102	466.021471175442	465.01020554989	466.021471175442
473.515339627165	4	64	TASK	2	2.74962943583432	2	RIGHT	28	1	0	1	82	474.510042070166	473.515339627165	474.510042070166
