onset	duration	trial_number	trial_type	trial_type_coded	reaction_time	expected_response_coded	response	response_coded	accuracy	accuracy_scrambled	accuracy_task	rec_codes_during_enc	onset_probe	onset_noTriggerAdjust	onset_probe_noTriggerAdjust
0.0157825880000928	2	1	CONTROL	1	n/a	1	n/a	n/a	0	0	0	0	0.0323265140000331	0.0157825880000928	0.0323265140000331
4.51658011500012	2	2	CONTROL	1	1.26535366399958	2	RIGHT	28	1	1	0	0	4.53313786900026	4.51658011500012	4.53313786900026
11.5158618680002	4	3	TASK	2	0.905393172999993	1	LEFT	5	1	0	1	16	12.5087365439999	11.5158618680002	12.5087365439999
19.5080923710002	2	4	CONTROL	1	0.833363954000106	1	LEFT	5	1	1	0	0	19.5246047629998	19.5080923710002	19.5246047629998
22.0397198119999	4	5	TASK	2	n/a	2	n/a	n/a	0	0	0	28	23.0160173550003	22.0397198119999	23.0160173550003
38.5204297119999	4	6	TASK	2	0.525206642000285	1	LEFT	5	1	0	1	1	39.513262211	38.5204297119999	39.513262211
49.5075656610002	2	7	CONTROL	1	0.66728602000012	2	RIGHT	28	1	1	0	0	49.5241114119999	49.5075656610002	49.5241114119999
56.5234698879999	2	8	CONTROL	1	0.723035488999813	2	RIGHT	28	1	1	0	0	56.539995092	56.5234698879999	56.539995092
66.0213086980002	4	9	TASK	2	1.03194255799963	2	RIGHT	28	1	0	1	33	67.0141627910002	66.0213086980002	67.0141627910002
70.5221176079999	2	10	CONTROL	1	0.684596212999622	2	RIGHT	28	1	1	0	0	70.5386270120002	70.5221176079999	70.5386270120002
76.0156971689998	4	11	TASK	2	1.14169953500004	2	RIGHT	28	1	0	1	17	77.0085124070001	76.0156971689998	77.0085124070001
81.5092552139999	4	12	TASK	2	1.20003492700016	2	RIGHT	28	1	0	1	11	82.5021118740001	81.5092552139999	82.5021118740001
92.5129421269999	4	13	TASK	2	0.453121639000074	1	LEFT	5	1	0	1	8	93.5057421490001	92.5129421269999	93.5057421490001
98.022996271	2	14	CONTROL	1	0.575063936999868	1	LEFT	5	1	1	0	0	98.0395743640001	98.022996271	98.0395743640001
104.509393862	4	15	TASK	2	0.952822592999837	1	LEFT	5	1	0	1	5	105.502232646	104.509393862	105.502232646
109.010214509	2	16	CONTROL	1	0.628151332000016	1	LEFT	5	1	1	0	0	109.026687812	109.010214509	109.026687812
112.021692054	2	17	CONTROL	1	0.792282988999887	2	RIGHT	28	1	1	0	0	112.038263228	112.021692054	112.038263228
118.508049007	4	18	TASK	2	0.641701610999917	2	RIGHT	28	1	0	1	25	119.517369076	118.508049007	119.517369076
125.010968403	2	19	CONTROL	1	0.5636215669997	1	LEFT	5	1	1	0	0	125.027548586	125.010968403	125.027548586
129.015311291	4	20	TASK	2	0.84671443399975	1	LEFT	5	1	0	1	21	130.008181165	129.015311291	130.008181165
135.00530934	4	21	TASK	2	0.648691854999925	2	RIGHT	28	1	0	1	35	136.014618164	135.00530934	136.014618164
151.006147407	4	22	TASK	2	0.759577709000041	1	LEFT	5	1	0	1	4	152.015490564	151.006147407	152.015490564
155.52341813	4	23	TASK	2	0.681816385000275	2	RIGHT	28	1	0	1	34	156.516260816	155.52341813	156.516260816
161.017037103	2	24	CONTROL	1	0.517400011000063	2	RIGHT	28	1	1	0	0	161.033583882	161.017037103	161.033583882
165.021313036	2	25	CONTROL	1	0.473533031999978	1	LEFT	5	1	1	0	0	165.037913496	165.021313036	165.037913496
174.51929014	2	26	CONTROL	1	0.455467928999951	2	RIGHT	28	1	1	0	0	174.535834133	174.51929014	174.535834133
179.516513516	2	27	CONTROL	1	0.69037312699993	2	RIGHT	28	1	1	0	0	179.532948369	179.516513516	179.532948369
182.048119781	4	28	TASK	2	0.582047826999769	2	RIGHT	28	1	0	1	15	183.007928887	182.048119781	183.007928887
189.014359205	2	29	CONTROL	1	0.743833268999879	2	RIGHT	28	1	1	0	0	189.030854952	189.014359205	189.030854952
193.018676276	4	30	TASK	2	0.731175729999904	2	RIGHT	28	1	0	1	36	194.011459218	193.018676276	194.011459218
202.020171961	4	31	TASK	2	0.658156376000079	2	RIGHT	28	1	0	1	14	203.013002885	202.020171961	203.013002885
209.515905134	4	32	TASK	2	0.88246720799998	1	LEFT	5	1	0	1	77	210.50875936	209.515905134	210.50875936
216.002304245	2	33	CONTROL	1	0.652105800999834	2	RIGHT	28	1	1	0	0	216.018832485	216.002304245	216.018832485
220.51964711	4	34	TASK	2	0.798231415999908	1	LEFT	5	1	0	1	87	221.512417998	220.51964711	221.512417998
226.013170227	4	35	TASK	2	0.664533934999781	1	LEFT	5	1	0	1	73	227.005980674	226.013170227	227.005980674
240.01188213	4	36	TASK	2	1.02632718799987	1	LEFT	5	1	0	1	94	241.004620419	240.01188213	241.004620419
254.010504659	4	37	TASK	2	1.25966852500005	1	LEFT	5	1	0	1	64	255.003324673	254.010504659	255.003324673
261.52281932	4	38	TASK	2	0.891343189000054	2	RIGHT	28	1	0	1	69	262.515652647	261.52281932	262.515652647
280.022219114	2	39	CONTROL	1	0.607601024999894	1	LEFT	5	1	1	0	0	280.038758576	280.022219114	280.038758576
283.017203826	4	40	TASK	2	0.524862230999588	2	RIGHT	28	1	0	1	97	284.009977078	283.017203826	284.009977078
292.018708337	4	41	TASK	2	0.651720503999968	1	LEFT	5	1	0	1	63	293.011525551	292.018708337	293.011525551
297.512326556	2	42	CONTROL	1	0.814123507000204	1	LEFT	5	1	1	0	0	297.528841845	297.512326556	297.528841845
305.520890515	2	43	CONTROL	1	0.541369849000148	1	LEFT	5	1	1	0	0	305.537504453	305.520890515	305.537504453
316.508079006	4	44	TASK	2	0.745878633000302	1	LEFT	5	1	0	1	70	317.517444009	316.508079006	317.517444009
324.020431585	4	45	TASK	2	0.906027517999973	1	LEFT	5	1	0	1	104	325.013249671	324.020431585	325.013249671
331.019676399	2	46	CONTROL	1	0.745827534999989	1	LEFT	5	1	1	0	0	331.036239643	331.019676399	331.036239643
336.513324943	4	47	TASK	2	0.629142209000292	2	RIGHT	28	1	0	1	45	337.50609515	336.513324943	337.50609515
347.020540854	4	48	TASK	2	0.952908665999985	2	RIGHT	28	1	0	1	83	348.013314038	347.020540854	348.013314038
358.024155426	2	49	CONTROL	1	0.70158522499969	1	LEFT	5	1	1	0	0	358.040773205	358.024155426	358.040773205
363.004857267	2	50	CONTROL	1	0.609794554000018	2	RIGHT	28	1	1	0	0	363.021386449	363.004857267	363.021386449
370.517138558	2	51	CONTROL	1	0.472582307999801	2	RIGHT	28	1	1	0	0	370.533675037	370.517138558	370.533675037
376.523598407	4	52	TASK	2	0.746318948999942	2	RIGHT	28	1	0	1	93	377.516395072	376.523598407	377.516395072
383.506434107	4	53	TASK	2	1.02801994100037	1	LEFT	5	1	0	1	46	384.515733586	383.506434107	384.515733586
390.505796062	4	54	TASK	2	0.915954521000003	2	RIGHT	28	1	0	1	96	391.515061929	390.505796062	391.515061929
405.017394169	4	55	TASK	2	0.789328154000032	2	RIGHT	28	1	0	1	49	406.010117827	405.017394169	406.010117827
412.016670455	4	56	TASK	2	0.966579195000122	2	RIGHT	28	1	0	1	103	413.009495241	412.016670455	413.009495241
418.519645393	4	57	TASK	2	1.01499326899966	2	RIGHT	28	1	0	1	66	419.512423294	418.519645393	419.512423294
429.523295706	4	58	TASK	2	0.890414402999795	2	RIGHT	28	1	0	1	48	430.516083982	429.523295706	430.516083982
443.505463274	4	59	TASK	2	0.652059988000019	2	RIGHT	28	1	0	1	99	444.514783955	443.505463274	444.514783955
448.022663915	4	60	TASK	2	0.767790722999962	1	LEFT	5	1	0	1	98	449.015547488	448.022663915	449.015547488
453.019864444	4	61	TASK	2	0.978716258000077	2	RIGHT	28	1	0	1	62	454.012674006	453.019864444	454.012674006
459.506300719	2	62	CONTROL	1	0.588363563999792	1	LEFT	5	1	1	0	0	459.522847679	459.506300719	459.522847679
465.016401014	4	63	TASK	2	0.693002219999926	1	LEFT	5	1	0	1	102	466.009167946	465.016401014	466.009167946
473.521476981	4	64	TASK	2	0.724855708000177	2	RIGHT	28	1	0	1	82	474.514258266	473.521476981	474.514258266
