onset	duration	trial_number	trial_type	trial_type_coded	reaction_time	expected_response_coded	response	response_coded	accuracy	accuracy_scrambled	accuracy_task	rec_codes_during_enc	onset_probe	onset_noTriggerAdjust	onset_probe_noTriggerAdjust
0.0131705110693474	2	1	CONTROL	1	1.37088993948828	1	LEFT	5	1	1	0	0	0.0463464525114432	0.0131705110693474	0.0463464525114432
4.52283068151155	2	2	CONTROL	1	0.57219151893014	2	RIGHT	28	1	1	0	0	4.5393135870695	4.52283068151155	4.5393135870695
11.5192424504653	4	3	TASK	2	3.12797490648836	1	LEFT	5	1	0	1	16	12.5139134685114	11.5192424504653	12.5139134685114
19.510483456907	2	4	CONTROL	1	0.726977077627907	1	LEFT	5	1	1	0	0	19.5270585803719	19.510483456907	19.5270585803719
22.0470572614649	4	5	TASK	2	0.821214704092654	2	RIGHT	28	1	0	1	28	23.008655203907	22.0470572614649	23.008655203907
38.5101062905114	4	6	TASK	2	0.725562409488703	1	LEFT	5	1	0	1	1	39.5214665535113	38.5101062905114	39.5214665535113
49.5187883634653	2	7	CONTROL	1	0.95899414962787	2	RIGHT	28	1	1	0	0	49.5353960383718	49.5187883634653	49.5353960383718
56.5151934469532	2	8	CONTROL	1	0.842319501488419	2	RIGHT	28	1	1	0	0	56.5317061145115	56.5151934469532	56.5317061145115
66.0150008940695	4	9	TASK	2	1.6693743750925	2	RIGHT	28	1	0	1	33	67.0098623419071	66.0150008940695	67.0098623419071
70.5245941860694	2	10	CONTROL	1	0.670411474046432	2	RIGHT	28	1	1	0	0	70.5411376569532	70.5245941860694	70.5411376569532
76.0124090379072	4	11	TASK	2	0.719136624930343	2	RIGHT	28	1	0	1	17	77.0070580730694	76.0124090379072	77.0070580730694
81.5165802130696	4	12	TASK	2	1.14920635706994	2	RIGHT	28	1	0	1	11	82.51137285093	81.5165802130696	82.51137285093
92.5251174766277	4	13	TASK	2	1.61939065904653	1	LEFT	5	1	0	1	8	93.5199710219531	92.5251174766277	93.5199710219531
98.0129918061393	2	14	CONTROL	1	0.612473701534782	1	LEFT	5	1	1	0	0	98.0295383184653	98.0129918061393	98.0295383184653
104.512054649907	4	15	TASK	2	1.21490118953488	1	LEFT	5	1	0	1	5	105.506753790465	104.512054649907	105.506753790465
109.02142950407	2	16	CONTROL	1	0.675780594930529	1	LEFT	5	1	1	0	0	109.038066512069	109.02142950407	109.038066512069
112.022333494953	2	17	CONTROL	1	0.598254788930717	2	RIGHT	28	1	1	0	0	112.038881748069	112.022333494953	112.038881748069
118.521332441511	4	18	TASK	2	1.82641871848864	2	RIGHT	28	1	0	1	25	119.516092993511	118.521332441511	119.516092993511
125.020374688069	2	19	CONTROL	1	0.647162423535065	1	LEFT	5	1	1	0	0	125.037063131465	125.020374688069	125.037063131465
129.015986842511	4	20	TASK	2	1.05596144153469	1	LEFT	5	1	0	1	21	130.010780142465	129.015986842511	130.010780142465
135.017668977511	4	21	TASK	2	0.821355204372594	2	RIGHT	28	1	0	1	35	136.012349116627	135.017668977511	136.012349116627
151.016521873186	4	22	TASK	2	1.82792727209289	1	LEFT	5	1	0	1	4	152.011395139907	151.016521873186	152.011395139907
155.526109191628	4	23	TASK	2	2.20200673348836	2	RIGHT	28	1	0	1	34	156.520913122512	155.526109191628	156.520913122512
161.013875520511	2	24	CONTROL	1	0.590386542534816	2	RIGHT	28	1	1	0	0	161.030482522465	161.013875520511	161.030482522465
165.026068499465	2	25	CONTROL	1	0.592543901535009	1	LEFT	5	1	1	0	0	165.042639561465	165.026068499465	165.042639561465
174.509422356907	2	26	CONTROL	1	0.56270501109293	2	RIGHT	28	1	1	0	0	174.525983320907	174.509422356907	174.525983320907
179.51622623007	2	27	CONTROL	1	0.602277694372333	2	RIGHT	28	1	1	0	0	179.532765370628	179.51622623007	179.532765370628
182.052959372907	4	28	TASK	2	2.03627814653464	2	RIGHT	28	1	0	1	15	183.014540786465	182.052959372907	183.014540786465
189.016172578465	2	29	CONTROL	1	0.525195777534918	2	RIGHT	28	1	1	0	0	189.032720217465	189.016172578465	189.032720217465
193.011654326628	4	30	TASK	2	1.55745959853493	2	RIGHT	28	1	0	1	36	194.006525727465	193.011654326628	194.006525727465
202.014152845069	4	31	TASK	2	1.71407203837225	2	RIGHT	28	1	0	1	14	203.008980848628	202.014152845069	203.008980848628
209.508031665953	4	32	TASK	2	1.95548624448838	1	LEFT	5	1	0	1	77	210.519277045511	209.508031665953	210.519277045511
216.02357694407	2	33	CONTROL	1	0.623648008092914	2	RIGHT	28	1	1	0	0	216.040327217907	216.02357694407	216.040327217907
220.516710464907	4	34	TASK	2	1.90904987253452	1	LEFT	5	1	0	1	87	221.511382232465	220.516710464907	221.511382232465
226.02086997807	4	35	TASK	2	2.06855248948841	1	LEFT	5	1	0	1	73	227.015639509511	226.02086997807	227.015639509511
240.013696187953	4	36	TASK	2	1.78028280409308	1	LEFT	5	1	0	1	94	241.008585819907	240.013696187953	241.008585819907
254.006594634953	4	37	TASK	2	2.33223512493032	1	LEFT	5	1	0	1	64	255.01788807507	254.006594634953	255.01788807507
261.516895202069	4	38	TASK	2	1.188819601256	2	RIGHT	28	1	0	1	69	262.511644621744	261.516895202069	262.511644621744
280.019292861512	2	39	CONTROL	1	0.652175855511814	1	LEFT	5	1	1	0	0	280.035932868488	280.019292861512	280.035932868488
283.020119621628	4	40	TASK	2	1.48929153404652	2	RIGHT	28	1	0	1	97	284.014974440953	283.020119621628	284.014974440953
292.022714498069	4	41	TASK	2	0.85655819648855	1	LEFT	5	1	0	1	63	293.017424248511	292.022714498069	293.017424248511
297.526956068069	2	42	CONTROL	1	0.635350554372053	1	LEFT	5	1	1	0	0	297.543497901628	297.526956068069	297.543497901628
305.518222483465	2	43	CONTROL	1	0.568199345534595	1	LEFT	5	1	1	0	0	305.534773582465	305.518222483465	305.534773582465
316.510179571953	4	44	TASK	2	3.05437643862797	1	LEFT	5	1	0	1	70	317.504963767372	316.510179571953	317.504963767372
324.02053311907	4	45	TASK	2	1.42653960516282	1	LEFT	5	1	0	1	104	325.015299063837	324.02053311907	325.015299063837
331.016937042069	2	46	CONTROL	1	0.631612729046992	1	LEFT	5	1	1	0	0	331.033567305953	331.016937042069	331.033567305953
336.52128661407	4	47	TASK	2	1.19628440348833	2	RIGHT	28	1	0	1	45	337.516035316512	336.52128661407	337.516035316512
347.015930119953	4	48	TASK	2	1.76495661148829	2	RIGHT	28	1	0	1	83	348.010584231512	347.015930119953	348.010584231512
358.007920620511	2	49	CONTROL	1	0.60925321448849	1	LEFT	5	1	1	0	0	358.024494785511	358.007920620511	358.024494785511
363.014791761069	2	50	CONTROL	1	0.590271790488259	2	RIGHT	28	1	1	0	0	363.031392350511	363.014791761069	363.031392350511
370.508660570465	2	51	CONTROL	1	0.652908666930216	2	RIGHT	28	1	1	0	0	370.52519234707	370.508660570465	370.52519234707
376.526891407511	4	52	TASK	2	1.93021317818648	2	RIGHT	28	1	0	1	93	377.505126647814	376.526891407511	377.505126647814
383.506656363511	4	53	TASK	2	1.21104224693045	1	LEFT	5	1	0	1	46	384.518030413069	383.506656363511	384.518030413069
390.519694456069	4	54	TASK	2	1.51342644893066	2	RIGHT	28	1	0	1	96	391.514474457069	390.519694456069	391.514474457069
405.026502110512	4	55	TASK	2	n/a	2	n/a	n/a	0	0	0	49	406.004716342465	405.026502110512	406.004716342465
412.022962884511	4	56	TASK	2	2.55779036793047	2	RIGHT	28	1	0	1	103	413.01772377207	412.022962884511	413.01772377207
418.522004221511	4	57	TASK	2	1.42241214337218	2	RIGHT	28	1	0	1	66	419.516707611628	418.522004221511	419.516707611628
429.513977218511	4	58	TASK	2	n/a	2	n/a	n/a	0	0	0	48	430.508788487465	429.513977218511	430.508788487465
443.506786059069	4	59	TASK	2	1.23176130404681	2	RIGHT	28	1	0	1	99	444.518195235953	443.506786059069	444.518195235953
448.032961153511	4	60	TASK	2	n/a	1	n/a	n/a	0	0	0	98	449.011133737953	448.032961153511	449.011133737953
453.023240366511	4	61	TASK	2	1.74193146493053	2	RIGHT	28	1	0	1	62	454.018064788069	453.023240366511	454.018064788069
459.522362271953	2	62	CONTROL	1	0.649347867930373	1	LEFT	5	1	1	0	0	459.53887588207	459.522362271953	459.53887588207
465.009997829628	4	63	TASK	2	0.709139562930432	1	LEFT	5	1	0	1	102	466.021338752069	465.009997829628	466.021338752069
473.515114857627	4	64	TASK	2	1.13663195409299	2	RIGHT	28	1	0	1	82	474.510042934907	473.515114857627	474.510042934907
