onset	duration	trial_number	trial_type	reaction_time	response_coded	response_str	pairno_rec	enc_codes_during_rec	onset_noTriggerAdjust
0.0806890849999036	3	1	CORRECTLY	2.92429638999965	5	SURE_CORRECT	3	6	0.0806890849999036
4.5152470489993	3	2	INCORRECTLY	3.24866610100071	10	MAYBE_INCORRECT	55	0	4.5152470489993
13.0038062139993	2	3	CONTROL	1.22252419699998	5	n/a	1000	0	13.0038062139993
16.0814905159996	3	4	CORRECTLY	2.44616587400014	5	SURE_CORRECT	12	0	16.0814905159996
21.0125250189994	3	5	CORRECTLY	2.26942492499984	5	SURE_CORRECT	8	15	21.0125250189994
25.0664883209993	2	6	CONTROL	1.51726263600085	28	n/a	1000	0	25.0664883209993
29.0212546369994	3	7	INCORRECTLY	2.44259663000048	21	SURE_INCORRECT	59	0	29.0212546369994
36.0205391399995	3	8	CORRECTLY	2.1051965659999	5	SURE_CORRECT	7	13	36.0205391399995
40.5047537599994	3	9	INCORRECTLY	2.15810090100058	21	SURE_INCORRECT	68	0	40.5047537599994
47.007716741	3	10	INCORRECTLY	3.22402079299991	21	SURE_INCORRECT	64	0	47.007716741
51.0782269259998	3	11	CORRECTLY	1.95680844100025	5	SURE_CORRECT	6	12	51.0782269259998
56.0091844459994	2	12	CONTROL	0.924221208000745	5	n/a	1000	0	56.0091844459994
61.519259443	3	13	INCORRECTLY	2.07751326099969	21	SURE_INCORRECT	78	0	61.519259443
65.5732577689996	3	14	CORRECTLY	2.43376105399966	5	SURE_CORRECT	16	31	65.5732577689996
69.5776137929997	3	15	CORRECTLY	1.65448584899968	5	SURE_CORRECT	14	0	69.5776137929997
75.0216013139998	3	16	CORRECTLY	1.93831270699957	5	SURE_CORRECT	1	3	75.0216013139998
79.0589822399998	3	17	CORRECTLY	2.32999809400008	5	SURE_CORRECT	5	11	79.0589822399998
83.5100950899996	3	18	INCORRECTLY	1.93821301699973	21	SURE_INCORRECT	51	0	83.5100950899996
90.0130612249995	3	19	INCORRECTLY	2.71200485000008	21	SURE_INCORRECT	47	0	90.0130612249995
94.0835356979997	3	20	INCORRECTLY	3.44014695999977	28	MAYBE_CORRECT	66	0	94.0835356979997
99.014516323	3	21	CORRECTLY	1.47326558899931	5	SURE_CORRECT	10	20	99.014516323
103.068530162	3	22	INCORRECTLY	1.52559494700017	21	SURE_INCORRECT	48	0	103.068530162
107.072863683	3	23	INCORRECTLY	2.68649068000013	21	SURE_INCORRECT	52	0	107.072863683
115.015348864999	3	24	INCORRECTLY	3.18285018900042	21	SURE_INCORRECT	45	0	115.015348864999
119.516127102999	3	25	CORRECTLY	3.59257495400016	5	SURE_CORRECT	9	18	119.516127102999
125.522638570999	3	26	INCORRECTLY	2.85840144800022	21	SURE_INCORRECT	42	0	125.522638570999
131.01615471	3	27	INCORRECTLY	3.34692775500025	28	MAYBE_CORRECT	80	0	131.01615471
137.00614347	3	28	CORRECTLY	1.9867492759995	5	SURE_CORRECT	2	5	137.00614347
142.003345779	2	29	CONTROL	1.57290615900001	10	n/a	1000	0	142.003345779
145.081083775	3	30	INCORRECTLY	2.15218128500055	21	SURE_INCORRECT	56	0	145.081083775
150.508442661	3	31	INCORRECTLY	3.37586010999985	10	MAYBE_INCORRECT	43	0	150.508442661
155.025692062	3	32	INCORRECTLY	2.93699619900053	21	SURE_INCORRECT	58	0	155.025692062
159.509925695999	3	33	CORRECTLY	3.35410561300068	28	MAYBE_CORRECT	4	9	159.509925695999
167.022209678999	3	34	CORRECTLY	1.33883284500007	5	SURE_CORRECT	13	0	167.022209678999
173.508620467	3	35	CORRECTLY	2.02481425400038	5	SURE_CORRECT	11	21	173.508620467
178.522289105	3	36	CORRECTLY	2.8720471659999	5	SURE_CORRECT	15	30	178.522289105
182.576335172	3	37	INCORRECTLY	1.77392980399964	21	SURE_INCORRECT	46	0	182.576335172
188.516627592	2	38	CONTROL	1.30161233199942	28	n/a	1000	0	188.516627592
193.513786230999	2	39	CONTROL	0.985870000000432	28	n/a	1000	0	193.513786230999
198.014497153999	3	40	INCORRECTLY	2.237750581	21	SURE_INCORRECT	62	0	198.014497153999
203.011746337	2	41	CONTROL	0.872582543000135	5	n/a	1000	0	203.011746337
207.512422535	2	42	CONTROL	1.73693351099973	21	n/a	1000	0	207.512422535
211.020390762999	2	43	CONTROL	1.11532684700069	28	n/a	1000	0	211.020390762999
218.516144907	3	44	INCORRECTLY	2.23279614799958	21	SURE_INCORRECT	49	0	218.516144907
224.026273185999	3	45	CORRECTLY	3.11217303900048	10	MAYBE_INCORRECT	27	47	224.026273185999
229.519790525	3	46	CORRECTLY	1.3977419619996	5	SURE_CORRECT	30	53	229.519790525
235.013362731	3	47	INCORRECTLY	1.73289347799982	21	SURE_INCORRECT	75	0	235.013362731
244.511256088	3	48	CORRECTLY	1.73854243200003	5	SURE_CORRECT	35	58	244.511256088
252.023506873	3	49	CORRECTLY	2.96500248899974	21	SURE_INCORRECT	32	55	252.023506873
256.077552695	2	50	CONTROL	2.13835828299943	21	n/a	1000	0	256.077552695
259.089025415	3	51	INCORRECTLY	1.79224231299941	21	SURE_INCORRECT	70	0	259.089025415
267.014999888	2	52	CONTROL	1.22159723000004	21	n/a	1000	0	267.014999888
272.508604089	3	53	INCORRECTLY	3.43454789899988	21	SURE_INCORRECT	79	0	272.508604089
277.505767312	3	54	INCORRECTLY	3.65986403699935	21	SURE_INCORRECT	65	0	277.505767312
282.006487867	2	55	CONTROL	0.890929937999317	5	n/a	1000	0	282.006487867
285.067630015	3	56	INCORRECTLY	1.81400551899969	21	SURE_INCORRECT	53	0	285.067630015
292.017393491	3	57	INCORRECTLY	2.91436822800006	10	MAYBE_INCORRECT	76	0	292.017393491
296.071314854999	2	58	CONTROL	0.884849754000243	5	n/a	1000	0	296.071314854999
300.009549294999	3	59	INCORRECTLY	1.9378714860004	21	SURE_INCORRECT	41	0	300.009549294999
305.519593100999	2	60	CONTROL	1.47854831800032	10	n/a	1000	0	305.519593100999
310.020379619	3	61	INCORRECTLY	2.75343350999992	21	SURE_INCORRECT	63	0	310.020379619
318.012542331	3	62	CORRECTLY	1.46749807699962	5	SURE_CORRECT	38	61	318.012542331
325.011919248	3	63	CORRECTLY	2.53591786200013	5	SURE_CORRECT	24	41	325.011919248
330.008982816999	3	64	CORRECTLY	2.78905467799996	10	MAYBE_INCORRECT	21	37	330.008982816999
335.519177325	3	65	INCORRECTLY	1.64119911899979	21	SURE_INCORRECT	67	0	335.519177325
341.509139506999	3	66	CORRECTLY	2.25600037799995	5	SURE_CORRECT	34	57	341.509139506999
346.506268366999	3	67	INCORRECTLY	3.52224019100049	21	SURE_INCORRECT	60	0	346.506268366999
351.023589949	2	68	CONTROL	1.34891776399945	21	n/a	1000	0	351.023589949
355.011392367	3	69	CORRECTLY	1.48194925099961	5	SURE_CORRECT	22	38	355.011392367
362.523633201	3	70	CORRECTLY	3.23455289499998	10	MAYBE_INCORRECT	25	44	362.523633201
367.007833031	3	71	INCORRECTLY	1.92682372299987	21	SURE_INCORRECT	71	0	367.007833031
371.078344299	3	72	INCORRECTLY	1.66930280599991	21	SURE_INCORRECT	57	0	371.078344299
375.512940338	3	73	CORRECTLY	3.48070264600028	10	MAYBE_INCORRECT	19	35	375.512940338
381.006484015	2	74	CONTROL	1.26940523499979	28	n/a	1000	0	381.006484015
386.020254941	3	75	INCORRECTLY	1.64609851299974	21	SURE_INCORRECT	74	0	386.020254941
391.513796071	2	76	CONTROL	1.57415693799976	10	n/a	1000	0	391.513796071
395.518146366	3	77	CORRECTLY	3.30788442699941	28	MAYBE_CORRECT	17	32	395.518146366
401.011692902	2	78	CONTROL	0.866692184000385	5	n/a	1000	0	401.011692902
405.016074949	3	79	INCORRECTLY	1.9937915950004	21	SURE_INCORRECT	77	0	405.016074949
409.516775563	2	80	CONTROL	1.38068909100002	10	n/a	1000	0	409.516775563
415.506767340999	3	81	INCORRECTLY	2.15055467900038	21	SURE_INCORRECT	44	0	415.506767340999
421.513310548	3	82	CORRECTLY	1.78179903099954	5	SURE_CORRECT	40	64	421.513310548
426.014055920999	3	83	CORRECTLY	2.55004236400055	10	MAYBE_INCORRECT	28	48	426.014055920999
430.068027797	3	84	INCORRECTLY	1.72310805800043	21	SURE_INCORRECT	50	0	430.068027797
437.01773856	3	85	INCORRECTLY	3.09092756799964	21	SURE_INCORRECT	72	0	437.01773856
443.5206479	3	86	INCORRECTLY	3.29117136199966	21	SURE_INCORRECT	69	0	443.5206479
447.574657501999	3	87	CORRECTLY	3.41644564000035	10	MAYBE_INCORRECT	18	34	447.574657501999
452.505585172	2	88	CONTROL	1.32184635199974	10	n/a	1000	0	452.505585172
455.583335494	2	89	CONTROL	1.25573489900034	28	n/a	1000	0	455.583335494
462.020061382	3	90	INCORRECTLY	1.61121746800018	21	SURE_INCORRECT	61	0	462.020061382
466.074054182	2	91	CONTROL	2.24591121100002	21	n/a	1000	0	466.074054182
470.525281171999	3	92	INCORRECTLY	2.79826026200044	21	SURE_INCORRECT	73	0	470.525281171999
474.579110326999	3	93	CORRECTLY	1.85731266899984	5	SURE_CORRECT	29	52	474.579110326999
479.510139804	3	94	CORRECTLY	2.42232894300014	10	MAYBE_INCORRECT	20	36	479.510139804
484.507331262	2	95	CONTROL	1.23751138900025	10	n/a	1000	0	484.507331262
489.024533897	3	96	CORRECTLY	1.64791734600021	5	SURE_CORRECT	31	54	489.024533897
493.062025741	3	97	CORRECTLY	2.91554854999958	28	MAYBE_CORRECT	23	40	493.062025741
498.009534172	3	98	CORRECTLY	2.83050094600003	5	SURE_CORRECT	37	60	498.009534172
502.510257446999	3	99	CORRECTLY	1.8913541310003	5	SURE_CORRECT	36	59	502.510257446999
506.580851279999	2	100	CONTROL	1.55029934699996	21	n/a	1000	0	506.580851279999
510.022542584999	3	101	INCORRECTLY	1.49222235200068	21	SURE_INCORRECT	54	0	510.022542584999
514.07656515	3	102	CORRECTLY	2.50423646600029	5	SURE_CORRECT	39	63	514.07656515
518.080929489	3	103	CORRECTLY	1.21406061499965	5	SURE_CORRECT	33	56	518.080929489
522.068707093999	3	104	CORRECTLY	2.78988005700012	10	MAYBE_INCORRECT	26	45	522.068707093999
