onset	duration	trial_number	trial_type	trial_type_coded	reaction_time	expected_response_coded	response	response_coded	accuracy	accuracy_scrambled	accuracy_task	rec_codes_during_enc	onset_probe	onset_noTriggerAdjust	onset_probe_noTriggerAdjust
0.013466999163029	2	1	CONTROL	1	0.888341681664315	1	LEFT	5	1	1	0	0	0.0466035973358885	0.013466999163029	0.0466035973358885
4.52301547333627	2	2	CONTROL	1	1.20120491675061	2	RIGHT	28	1	1	0	0	4.53956738524903	4.52301547333627	4.53956738524903
11.5194252902493	4	3	TASK	2	1.0988330147502	1	LEFT	5	1	0	1	16	12.5141542682495	11.5194252902493	12.5141542682495
19.510581021249	2	4	CONTROL	1	0.663016834442715	1	LEFT	5	1	1	0	0	19.5272041785574	19.510581021249	19.5272041785574
22.0471519802495	4	5	TASK	2	0.607023794749693	2	RIGHT	28	1	0	1	28	23.0087932882498	22.0471519802495	23.0087932882498
38.5103615763355	4	6	TASK	2	0.600822137394061	1	LEFT	5	1	0	1	1	39.5052212566061	38.5103615763355	39.5052212566061
49.5189739063362	2	7	CONTROL	1	0.560118369788142	2	RIGHT	28	1	1	0	0	49.5355731512118	49.5189739063362	49.5355731512118
56.5153065724226	2	8	CONTROL	1	0.48871629061523	2	RIGHT	28	1	1	0	0	56.531954709385	56.5153065724226	56.531954709385
66.0153092401624	4	9	TASK	2	0.598773353664001	2	RIGHT	28	1	0	1	33	67.009999122336	66.0153092401624	67.009999122336
70.524819322336	2	10	CONTROL	1	n/a	2	n/a	n/a	0	0	0	0	70.5413664903363	70.524819322336	70.5413664903363
76.0124551803356	4	11	TASK	2	0.644251639308095	2	RIGHT	28	1	0	1	17	77.007282707692	76.0124551803356	77.007282707692
81.5167581833357	4	12	TASK	2	0.474169760394034	2	RIGHT	28	1	0	1	11	82.5116046466055	81.5167581833357	82.5116046466055
92.5253856253357	4	13	TASK	2	0.631693350664136	1	LEFT	5	1	0	1	8	93.5201273923358	92.5253856253357	93.5201273923358
98.0131375453357	2	14	CONTROL	1	0.450155030664064	1	LEFT	5	1	1	0	0	98.0296759203356	98.0131375453357	98.0296759203356
104.512257815606	4	15	TASK	2	0.528869284307802	1	LEFT	5	1	0	1	5	105.506925533692	104.512257815606	105.506925533692
109.021668335423	2	16	CONTROL	1	0.413567760750084	1	LEFT	5	1	1	0	0	109.03830418625	109.021668335423	109.03830418625
112.02253537625	2	17	CONTROL	1	0.613586588749968	2	RIGHT	28	1	1	0	0	112.03912213225	112.02253537625	112.03912213225
118.521602989249	4	18	TASK	2	0.570320437528608	2	RIGHT	28	1	0	1	25	119.516402255471	118.521602989249	119.516402255471
125.020621002336	2	19	CONTROL	1	0.472108575836501	1	LEFT	5	1	1	0	0	125.037220551163	125.020621002336	125.037220551163
129.016173745249	4	20	TASK	2	0.487655744577751	1	LEFT	5	1	0	1	21	130.010920294422	129.016173745249	130.010920294422
135.017863893336	4	21	TASK	2	0.603643945836666	2	RIGHT	28	1	0	1	35	136.012672431163	135.017863893336	136.012672431163
151.016831809249	4	22	TASK	2	0.993358498307316	1	LEFT	5	1	0	1	4	152.011640526693	151.016831809249	152.011640526693
155.526378183336	4	23	TASK	2	0.630563437875026	2	RIGHT	28	1	0	1	34	156.504550229125	155.526378183336	156.504550229125
161.01402820925	2	24	CONTROL	1	0.673344335750699	2	RIGHT	28	1	1	0	0	161.030610246249	161.01402820925	161.030610246249
165.026239094336	2	25	CONTROL	1	0.537922278750557	1	LEFT	5	1	1	0	0	165.042768448249	165.026239094336	165.042768448249
174.509470138336	2	26	CONTROL	1	1.20333746978849	2	RIGHT	28	1	1	0	0	174.526190156212	174.509470138336	174.526190156212
179.516434467249	2	27	CONTROL	1	0.585480971787547	2	RIGHT	28	1	1	0	0	179.533042569212	179.516434467249	179.533042569212
182.053110975644	4	28	TASK	2	0.8162909067496	2	RIGHT	28	1	0	1	15	183.01465025525	182.053110975644	183.01465025525
189.016359243336	2	29	CONTROL	1	0.536487771663815	2	RIGHT	28	1	1	0	0	189.032935987336	189.016359243336	189.032935987336
193.028495517336	4	30	TASK	2	0.906568677307405	2	RIGHT	28	1	0	1	36	194.006770328692	193.028495517336	194.006770328692
202.014402864249	4	31	TASK	2	0.932285289393803	2	RIGHT	28	1	0	1	14	203.009268629606	202.014402864249	203.009268629606
209.508185639249	4	32	TASK	2	0.54953583430688	1	LEFT	5	1	0	1	77	210.519598583693	209.508185639249	210.519598583693
216.007276869336	2	33	CONTROL	1	0.665405480577647	2	RIGHT	28	1	1	0	0	216.023807204422	216.007276869336	216.023807204422
220.516761431336	4	34	TASK	2	0.573510377664206	1	LEFT	5	1	0	1	87	221.511579840336	220.516761431336	221.511579840336
226.021099728336	4	35	TASK	2	0.502779152664516	1	LEFT	5	1	0	1	73	227.015886014336	226.021099728336	227.015886014336
240.013889239422	4	36	TASK	2	0.993011528307761	1	LEFT	5	1	0	1	94	241.008764907692	240.013889239422	241.008764907692
254.023405514163	4	37	TASK	2	0.471110921664149	1	LEFT	5	1	0	1	64	255.018145774336	254.023405514163	255.018145774336
261.517187051163	4	38	TASK	2	1.68998480575101	2	RIGHT	28	1	0	1	69	262.511939100249	261.517187051163	262.511939100249
280.019524700336	2	39	CONTROL	1	0.515896149701803	1	LEFT	5	1	1	0	0	280.036193200298	280.019524700336	280.036193200298
283.020413919336	4	40	TASK	2	0.626193507664539	2	RIGHT	28	1	0	1	97	284.015100484336	283.020413919336	284.015100484336
292.02291238725	4	41	TASK	2	0.529636640923854	1	LEFT	5	1	0	1	63	293.017631733076	292.02291238725	293.017631733076
297.527181972249	2	42	CONTROL	1	0.477623169664184	1	LEFT	5	1	1	0	0	297.543714368336	297.527181972249	297.543714368336
305.518372552336	2	43	CONTROL	1	0.419204383614669	1	LEFT	5	1	1	0	0	305.535003695385	305.518372552336	305.535003695385
316.510322651249	4	44	TASK	2	0.446822941394203	1	LEFT	5	1	0	1	70	317.505244076606	316.510322651249	317.505244076606
324.004121569336	4	45	TASK	2	0.681334398664148	1	LEFT	5	1	0	1	104	325.015532124336	324.004121569336	325.015532124336
331.01715630025	2	46	CONTROL	1	0.488027073836747	1	LEFT	5	1	1	0	0	331.033770092163	331.01715630025	331.033770092163
336.52141402425	4	47	TASK	2	1.34470167866402	2	RIGHT	28	1	0	1	45	337.516236473336	336.52141402425	337.516236473336
347.016139264249	4	48	TASK	2	1.10960144766432	2	RIGHT	28	1	0	1	83	348.010813154336	347.016139264249	348.010813154336
358.024730532076	2	49	CONTROL	1	0.450703922788307	1	LEFT	5	1	1	0	0	358.041335168212	358.024730532076	358.041335168212
363.01502650925	2	50	CONTROL	1	1.87816221478897	2	RIGHT	28	1	1	0	0	363.031711681211	363.01502650925	363.031711681211
370.50882282325	2	51	CONTROL	1	0.752445945750878	2	RIGHT	28	1	1	0	0	370.525402194249	370.50882282325	370.525402194249
376.527064867422	4	52	TASK	2	0.867495993307784	2	RIGHT	28	1	0	1	93	377.505290890692	376.527064867422	377.505290890692
383.523569891336	4	53	TASK	2	0.48692528866377	1	LEFT	5	1	0	1	46	384.518250697336	383.523569891336	384.518250697336
390.519915443336	4	54	TASK	2	1.15128625635589	2	RIGHT	28	1	0	1	96	391.514722598644	390.519915443336	391.514722598644
405.010145904249	4	55	TASK	2	0.740182447394545	2	RIGHT	28	1	0	1	49	406.004990758605	405.010145904249	406.004990758605
412.006593885077	4	56	TASK	2	0.893711709663876	2	RIGHT	28	1	0	1	103	413.017912962336	412.006593885077	413.017912962336
418.522218419249	4	57	TASK	2	1.05080053530764	2	RIGHT	28	1	0	1	66	419.516995865692	418.522218419249	419.516995865692
429.51415234825	4	58	TASK	2	1.0689601537506	2	RIGHT	28	1	0	1	48	430.508954742249	429.51415234825	430.508954742249
443.507046124336	4	59	TASK	2	1.58972044683651	2	RIGHT	28	1	0	1	99	444.518416046163	443.507046124336	444.518416046163
448.033148016249	4	60	TASK	2	0.606961811663496	1	LEFT	5	1	0	1	98	449.011367061336	448.033148016249	449.011367061336
453.023472191249	4	61	TASK	2	0.70893374766456	2	RIGHT	28	1	0	1	62	454.018291083335	453.023472191249	454.018291083335
459.505964762336	2	62	CONTROL	1	0.510707534923313	1	LEFT	5	1	1	0	0	459.522524963077	459.505964762336	459.522524963077
465.010314433693	4	63	TASK	2	0.523034317307975	1	LEFT	5	1	0	1	102	466.005069041692	465.010314433693	466.005069041692
473.515379798336	4	64	TASK	2	0.615404886394572	2	RIGHT	28	1	0	1	82	474.510236134605	473.515379798336	474.510236134605
