onset	duration	trial_number	trial_type	reaction_time	response_coded	response_str	pairno_rec	enc_codes_during_rec	onset_noTriggerAdjust
0.0972413920001145	3	1	CORRECTLY	3.62856819099989	10	MAYBE_INCORRECT	3	6	0.0972413920001145
4.51529606000008	3	2	INCORRECTLY	2.56732846999989	21	SURE_INCORRECT	55	0	4.51529606000008
13.0204053360001	2	3	CONTROL	1.70289085900004	5	n/a	1000	0	13.0204053360001
16.065026712	3	4	CORRECTLY	3.42171498100015	28	MAYBE_CORRECT	12	0	16.065026712
21.012540984	3	5	CORRECTLY	1.653818796	5	SURE_CORRECT	8	15	21.012540984
25.0830496010001	2	6	CONTROL	1.44031888099994	28	n/a	1000	0	25.0830496010001
29.021226437	3	7	INCORRECTLY	2.322532701	21	SURE_INCORRECT	59	0	29.021226437
36.0040048820001	3	8	CORRECTLY	2.37161133299992	28	MAYBE_CORRECT	7	13	36.0040048820001
40.5213506530001	3	9	INCORRECTLY	2.29112033399997	21	SURE_INCORRECT	68	0	40.5213506530001
47.0242952630001	3	10	INCORRECTLY	3.445654655	21	SURE_INCORRECT	64	0	47.0242952630001
51.0782600509999	3	11	CORRECTLY	3.37977166700011	10	MAYBE_INCORRECT	6	12	51.0782600509999
56.0257031609999	2	12	CONTROL	1.40296266700011	5	n/a	1000	0	56.0257031609999
61.5192965799999	3	13	INCORRECTLY	2.82874549500002	10	MAYBE_INCORRECT	78	0	61.5192965799999
65.5733902750001	3	14	CORRECTLY	3.27502401599986	5	SURE_CORRECT	16	31	65.5733902750001
69.5776688400001	3	15	CORRECTLY	2.70518045299991	10	MAYBE_INCORRECT	14	0	69.5776688400001
75.0215389340001	3	16	CORRECTLY	2.20214637599997	5	SURE_CORRECT	1	3	75.0215389340001
79.07555748	3	17	CORRECTLY	2.70861461799996	10	MAYBE_INCORRECT	5	11	79.07555748
83.5101235560001	3	18	INCORRECTLY	3.16818716700004	21	SURE_INCORRECT	51	0	83.5101235560001
90.0130209209999	3	19	INCORRECTLY	n/a	n/a	n/a	47	0	90.0130209209999
94.067015807	3	20	INCORRECTLY	0.0779752119999557	10	MAYBE_INCORRECT	66	0	94.067015807
99.014566819	3	21	CORRECTLY	1.63783396400004	5	SURE_CORRECT	10	20	99.014566819
103.085087514	3	22	INCORRECTLY	2.60384279599998	10	MAYBE_INCORRECT	48	0	103.085087514
107.072870806	3	23	INCORRECTLY	2.69743343899995	10	MAYBE_INCORRECT	52	0	107.072870806
115.015385063	3	24	INCORRECTLY	3.72471449500017	10	MAYBE_INCORRECT	45	0	115.015385063
119.516141971	3	25	CORRECTLY	2.54051298500008	28	MAYBE_CORRECT	9	18	119.516141971
125.506087883	3	26	INCORRECTLY	1.82352611800002	10	MAYBE_INCORRECT	42	0	125.506087883
131.016228538	3	27	INCORRECTLY	2.731044978	28	MAYBE_CORRECT	80	0	131.016228538
137.022765442	3	28	CORRECTLY	2.752305514	10	MAYBE_INCORRECT	2	5	137.022765442
142.019968099	2	29	CONTROL	1.48123715500014	10	n/a	1000	0	142.019968099
145.081096457	3	30	INCORRECTLY	3.32257291499991	28	MAYBE_CORRECT	56	0	145.081096457
150.524966857	3	31	INCORRECTLY	2.73293356599993	10	MAYBE_INCORRECT	43	0	150.524966857
155.02570657	3	32	INCORRECTLY	2.26195946400003	28	MAYBE_CORRECT	58	0	155.02570657
159.509968793	3	33	CORRECTLY	1.78948800799981	10	MAYBE_INCORRECT	4	9	159.509968793
167.022216025	3	34	CORRECTLY	2.37131084199996	5	SURE_CORRECT	13	0	167.022216025
173.525124319	3	35	CORRECTLY	2.74198727199996	28	MAYBE_CORRECT	11	21	173.525124319
178.505741291	3	36	CORRECTLY	1.98039471499987	5	SURE_CORRECT	15	30	178.505741291
182.559748689	3	37	INCORRECTLY	1.75057096199998	21	SURE_INCORRECT	46	0	182.559748689
188.516637525	2	38	CONTROL	1.31357201799983	28	n/a	1000	0	188.516637525
193.513799827	2	39	CONTROL	1.01599166400001	28	n/a	1000	0	193.513799827
198.014558595	3	40	INCORRECTLY	1.82208488200013	21	SURE_INCORRECT	62	0	198.014558595
203.011761195	2	41	CONTROL	1.74111437600004	5	n/a	1000	0	203.011761195
207.512475793	2	42	CONTROL	1.52454622100004	21	n/a	1000	0	207.512475793
211.02040093	2	43	CONTROL	1.07080339300001	28	n/a	1000	0	211.02040093
218.516126238	3	44	INCORRECTLY	3.33917947100008	10	MAYBE_INCORRECT	49	0	218.516126238
224.009675612	3	45	CORRECTLY	2.59553866600004	10	MAYBE_INCORRECT	27	47	224.009675612
229.519784992	3	46	CORRECTLY	2.85513506300003	28	MAYBE_CORRECT	30	53	229.519784992
235.013393729	3	47	INCORRECTLY	2.46076229799996	21	SURE_INCORRECT	75	0	235.013393729
244.511334295	3	48	CORRECTLY	2.54398429100002	28	MAYBE_CORRECT	35	58	244.511334295
252.023614142	3	49	CORRECTLY	2.8883474889999	28	MAYBE_CORRECT	32	55	252.023614142
256.077573645	2	50	CONTROL	1.76791276800009	21	n/a	1000	0	256.077573645
259.072596291	3	51	INCORRECTLY	2.47636878200001	10	MAYBE_INCORRECT	70	0	259.072596291
267.015106983	2	52	CONTROL	1.60770090799997	21	n/a	1000	0	267.015106983
272.525183367	3	53	INCORRECTLY	1.8570990369999	21	SURE_INCORRECT	79	0	272.525183367
277.505789961	3	54	INCORRECTLY	3.25221033700018	10	MAYBE_INCORRECT	65	0	277.505789961
282.006527808	2	55	CONTROL	1.63031352300004	5	n/a	1000	0	282.006527808
285.067674119	3	56	INCORRECTLY	2.05774966599984	21	SURE_INCORRECT	53	0	285.067674119
292.017413973	3	57	INCORRECTLY	2.47047584600023	10	MAYBE_INCORRECT	76	0	292.017413973
296.071368733	2	58	CONTROL	1.23037516199975	5	n/a	1000	0	296.071368733
300.009579206	3	59	INCORRECTLY	2.12864644399997	21	SURE_INCORRECT	41	0	300.009579206
305.519665669	2	60	CONTROL	1.88053189599987	10	n/a	1000	0	305.519665669
310.020433065	3	61	INCORRECTLY	3.14857151899969	10	MAYBE_INCORRECT	63	0	310.020433065
318.012573183	3	62	CORRECTLY	3.24157786199976	10	MAYBE_INCORRECT	38	61	318.012573183
325.011904787	3	63	CORRECTLY	2.265466629	28	MAYBE_CORRECT	24	41	325.011904787
330.009015012	3	64	CORRECTLY	2.58927148099974	5	SURE_CORRECT	21	37	330.009015012
335.519181585	3	65	INCORRECTLY	2.3433977310001	28	MAYBE_CORRECT	67	0	335.519181585
341.525692798	3	66	CORRECTLY	2.44499951999978	28	MAYBE_CORRECT	34	57	341.525692798
346.522835205	3	67	INCORRECTLY	2.23775867999984	21	SURE_INCORRECT	60	0	346.522835205
351.023568978	2	68	CONTROL	1.34489239699997	21	n/a	1000	0	351.023568978
355.011397497	3	69	CORRECTLY	3.698127656	21	SURE_INCORRECT	22	38	355.011397497
362.507126642	3	70	CORRECTLY	3.25250814999981	10	MAYBE_INCORRECT	25	44	362.507126642
367.007914032	3	71	INCORRECTLY	2.06808647699972	10	MAYBE_INCORRECT	71	0	367.007914032
371.078416057	3	72	INCORRECTLY	2.14332553700024	10	MAYBE_INCORRECT	57	0	371.078416057
375.51299399	3	73	CORRECTLY	2.12018223599989	10	MAYBE_INCORRECT	19	35	375.51299399
381.023105182	2	74	CONTROL	1.5126960130001	28	n/a	1000	0	381.023105182
386.020261169	3	75	INCORRECTLY	1.83753589100024	21	SURE_INCORRECT	74	0	386.020261169
391.513883008	2	76	CONTROL	1.67301605799958	10	n/a	1000	0	391.513883008
395.518151224	3	77	CORRECTLY	2.77419581899994	10	MAYBE_INCORRECT	17	32	395.518151224
401.011738766	2	78	CONTROL	1.44852469599982	5	n/a	1000	0	401.011738766
405.016083307	3	79	INCORRECTLY	2.54677027499974	21	SURE_INCORRECT	77	0	405.016083307
409.516817123	2	80	CONTROL	1.35344830800022	10	n/a	1000	0	409.516817123
415.506829313	3	81	INCORRECTLY	3.84434544399983	21	SURE_INCORRECT	44	0	415.506829313
421.513363982	3	82	CORRECTLY	2.41936099800023	5	SURE_CORRECT	40	64	421.513363982
426.014079373	3	83	CORRECTLY	2.45416178100004	10	MAYBE_INCORRECT	28	48	426.014079373
430.068050913	3	84	INCORRECTLY	2.40154736600016	28	MAYBE_CORRECT	50	0	430.068050913
437.017740029	3	85	INCORRECTLY	3.20541026899991	10	MAYBE_INCORRECT	72	0	437.017740029
443.504137257	3	86	INCORRECTLY	3.22105172600004	5	SURE_CORRECT	69	0	443.504137257
447.574674236	3	87	CORRECTLY	2.11107007200008	5	SURE_CORRECT	18	34	447.574674236
452.522232908	2	88	CONTROL	1.28292792999991	10	n/a	1000	0	452.522232908
455.583334106	2	89	CONTROL	1.28741461700019	28	n/a	1000	0	455.583334106
462.020127347	3	90	INCORRECTLY	3.51868134300003	10	MAYBE_INCORRECT	61	0	462.020127347
466.074142484	2	91	CONTROL	1.75215729299998	21	n/a	1000	0	466.074142484
470.508685745	3	92	INCORRECTLY	2.69361744200023	28	MAYBE_CORRECT	73	0	470.508685745
474.57923966	3	93	CORRECTLY	1.88686228699999	10	MAYBE_INCORRECT	29	52	474.57923966
479.510144806	3	94	CORRECTLY	2.8256660889997	10	MAYBE_INCORRECT	20	36	479.510144806
484.507315648	2	95	CONTROL	1.20253533499999	10	n/a	1000	0	484.507315648
489.02458853	3	96	CORRECTLY	1.84427890899997	10	MAYBE_INCORRECT	31	54	489.02458853
493.078585908	3	97	CORRECTLY	2.24456066399989	10	MAYBE_INCORRECT	23	40	493.078585908
498.009572561	3	98	CORRECTLY	2.92081660199983	5	SURE_CORRECT	37	60	498.009572561
502.510365048	3	99	CORRECTLY	1.74279061600009	21	SURE_INCORRECT	36	59	502.510365048
506.564305641	2	100	CONTROL	2.3779799189997	21	n/a	1000	0	506.564305641
510.006074556	3	101	INCORRECTLY	3.03331579699989	21	SURE_INCORRECT	54	0	510.006074556
514.07659336	3	102	CORRECTLY	1.906752633	5	SURE_CORRECT	39	63	514.07659336
518.080893316	3	103	CORRECTLY	2.15476841300006	5	SURE_CORRECT	33	56	518.080893316
522.085284653	3	104	CORRECTLY	1.97954503600022	28	MAYBE_CORRECT	26	45	522.085284653
