onset	duration	trial_number	trial_type	trial_type_coded	reaction_time	expected_response_coded	response	response_coded	accuracy	accuracy_scrambled	accuracy_task	rec_codes_during_enc	onset_probe	onset_noTriggerAdjust	onset_probe_noTriggerAdjust
0.0134188090396492	2	1	CONTROL	1	0.837436406294728	1	LEFT	5	1	1	0	0	0.0465556047051905	0.0134188090396492	0.0465556047051905
4.5229566467051	2	2	CONTROL	1	0.725750364960277	2	RIGHT	28	1	1	0	0	4.53955932103963	4.5229566467051	4.53955932103963
11.5193908267051	4	3	TASK	2	1.35588037062553	1	LEFT	5	1	0	1	16	12.5140992063743	11.5193908267051	12.5140992063743
19.5105567330393	2	4	CONTROL	1	0.683003306625778	1	LEFT	5	1	1	0	0	19.5270717993744	19.5105567330393	19.5270717993744
22.0471025123743	4	5	TASK	2	1.06553887029531	2	RIGHT	28	1	0	1	28	23.0087824587049	22.0471025123743	23.0087824587049
38.5103211007049	4	6	TASK	2	n/a	1	n/a	n/a	0	0	0	1	39.5050315243611	38.5103211007049	39.5050315243611
49.5188681203745	2	7	CONTROL	1	0.549183271978109	2	RIGHT	28	1	1	0	0	49.5355426950218	49.5188681203745	49.5355426950218
56.5153251790393	2	8	CONTROL	1	0.747245284960627	2	RIGHT	28	1	1	0	0	56.5318824220394	56.5153251790393	56.5318824220394
66.0151754183703	4	9	TASK	2	0.97714014365647	2	RIGHT	28	1	0	1	33	67.0100644603435	66.0151754183703	67.0100644603435
70.5247130730395	2	10	CONTROL	1	0.563736845960193	2	RIGHT	28	1	1	0	0	70.5413428500397	70.5247130730395	70.5413428500397
76.012440028705	4	11	TASK	2	0.595566750294893	2	RIGHT	28	1	0	1	17	77.007224410705	76.012440028705	77.007224410705
81.5167801267048	4	12	TASK	2	0.954389972295303	2	RIGHT	28	1	0	1	11	82.5114646617048	81.5167801267048	82.5114646617048
92.5253192600394	4	13	TASK	2	0.680954328294774	1	LEFT	5	1	0	1	8	93.5200358797051	92.5253192600394	93.5200358797051
98.012998691705	2	14	CONTROL	1	0.821560018294804	1	LEFT	5	1	1	0	0	98.0296212917051	98.012998691705	98.0296212917051
104.512053096039	4	15	TASK	2	1.45297683896024	1	LEFT	5	1	0	1	5	105.50686437404	104.512053096039	105.50686437404
109.021650384039	2	16	CONTROL	1	0.746102422960575	1	LEFT	5	1	1	0	0	109.03820610604	109.021650384039	109.03820610604
112.022476845039	2	17	CONTROL	1	0.633853870294843	2	RIGHT	28	1	1	0	0	112.039029401705	112.022476845039	112.039029401705
118.52156135104	4	18	TASK	2	0.47546959962574	2	RIGHT	28	1	0	1	25	119.516229026374	118.52156135104	119.516229026374
125.020552626705	2	19	CONTROL	1	0.536307783960638	1	LEFT	5	1	1	0	0	125.037145654039	125.020552626705	125.037145654039
129.01619782637	4	20	TASK	2	0.787223422295028	1	LEFT	5	1	0	1	21	130.010911001705	129.01619782637	130.010911001705
135.017834137039	4	21	TASK	2	0.702201677294852	2	RIGHT	28	1	0	1	35	136.012534673705	135.017834137039	136.012534673705
151.016804856705	4	22	TASK	2	0.623168638656352	1	LEFT	5	1	0	1	4	152.011597176343	151.016804856705	152.011597176343
155.52623936604	4	23	TASK	2	0.556818439316885	2	RIGHT	28	1	0	1	34	156.504533631683	155.52623936604	156.504533631683
161.01406121237	2	24	CONTROL	1	0.70897874296088	2	RIGHT	28	1	1	0	0	161.030612291039	161.01406121237	161.030612291039
165.00957210337	2	25	CONTROL	1	0.549194579960385	1	LEFT	5	1	1	0	0	165.026176122039	165.00957210337	165.026176122039
174.509561226344	2	26	CONTROL	1	0.585447688295062	2	RIGHT	28	1	1	0	0	174.526018970705	174.509561226344	174.526018970705
179.516395224705	2	27	CONTROL	1	0.55487074529492	2	RIGHT	28	1	1	0	0	179.532993424705	179.516395224705	179.532993424705
182.053024910039	4	28	TASK	2	0.548719458295182	2	RIGHT	28	1	0	1	15	183.014611736705	182.053024910039	183.014611736705
189.01625663104	2	29	CONTROL	1	0.546749526960411	2	RIGHT	28	1	1	0	0	189.032844944039	189.01625663104	189.032844944039
193.011867805035	4	30	TASK	2	1.20208211232148	2	RIGHT	28	1	0	1	36	194.006662350679	193.011867805035	194.006662350679
202.014450664344	4	31	TASK	2	0.65770008896061	2	RIGHT	28	1	0	1	14	203.009138951039	202.014450664344	203.009138951039
209.50811023004	4	32	TASK	2	0.839633656960814	1	LEFT	5	1	0	1	77	210.519485343039	209.50811023004	210.519485343039
216.007262487705	2	33	CONTROL	1	0.637714346630219	2	RIGHT	28	1	1	0	0	216.02384030537	216.007262487705	216.02384030537
220.516738440039	4	34	TASK	2	0.730452953960594	1	LEFT	5	1	0	1	87	221.51146177604	220.516738440039	221.51146177604
226.021029537039	4	35	TASK	2	0.585840931630173	1	LEFT	5	1	0	1	73	227.01579921437	226.021029537039	227.01579921437
240.013935811705	4	36	TASK	2	1.05815273932149	1	LEFT	5	1	0	1	94	241.008723980678	240.013935811705	241.008723980678
254.023345520705	4	37	TASK	2	1.38286254596096	1	LEFT	5	1	0	1	64	255.018047200039	254.023345520705	255.018047200039
261.51716859737	4	38	TASK	2	0.67409901897372	2	RIGHT	28	1	0	1	69	262.511859434027	261.51716859737	262.511859434027
280.01946812604	2	39	CONTROL	1	0.635835815638984	1	LEFT	5	1	1	0	0	280.036094941361	280.01946812604	280.036094941361
283.020362179705	4	40	TASK	2	0.608030484294886	2	RIGHT	28	1	0	1	97	284.015098401705	283.020362179705	284.015098401705
292.022830607039	4	41	TASK	2	0.512266242295027	1	LEFT	5	1	0	1	63	293.017581565705	292.022830607039	293.017581565705
297.527090492374	2	42	CONTROL	1	0.599896166294911	1	LEFT	5	1	1	0	0	297.543740977705	297.527090492374	297.543740977705
305.518362365705	2	43	CONTROL	1	0.662038501977804	1	LEFT	5	1	1	0	0	305.535018288022	305.518362365705	305.535018288022
316.510262538374	4	44	TASK	2	1.13711415897797	1	LEFT	5	1	0	1	70	317.505136402022	316.510262538374	317.505136402022
324.020727498705	4	45	TASK	2	0.940542634625672	1	LEFT	5	1	0	1	104	325.015412071374	324.020727498705	325.015412071374
331.017124069374	2	46	CONTROL	1	0.629255341638782	1	LEFT	5	1	1	0	0	331.033716290361	331.017124069374	331.033716290361
336.521463472705	4	47	TASK	2	0.809992757294822	2	RIGHT	28	1	0	1	45	337.516145584705	336.521463472705	337.516145584705
347.016008070705	4	48	TASK	2	0.565343939960712	2	RIGHT	28	1	0	1	83	348.010801648039	347.016008070705	348.010801648039
358.008072424705	2	49	CONTROL	1	0.604179998625568	1	LEFT	5	1	1	0	0	358.024617721374	358.008072424705	358.024617721374
363.014952025705	2	50	CONTROL	1	0.528646915960508	2	RIGHT	28	1	1	0	0	363.03155594604	363.014952025705	363.03155594604
370.508751280374	2	51	CONTROL	1	0.515295404625704	2	RIGHT	28	1	1	0	0	370.525337943374	370.508751280374	370.525337943374
376.527009235705	4	52	TASK	2	0.461130390982362	2	RIGHT	28	1	0	1	93	377.505313886018	376.527009235705	377.505313886018
383.50692063737	4	53	TASK	2	0.479793680960483	1	LEFT	5	1	0	1	46	384.518193437039	383.50692063737	384.518193437039
390.519893849705	4	54	TASK	2	0.602950472294651	2	RIGHT	28	1	0	1	96	391.514673629705	390.519893849705	391.514673629705
405.010136402705	4	55	TASK	2	0.924089933639152	2	RIGHT	28	1	0	1	49	406.004845422361	405.010136402705	406.004845422361
412.023070354705	4	56	TASK	2	0.769485157295094	2	RIGHT	28	1	0	1	103	413.017873585705	412.023070354705	413.017873585705
418.52217420937	4	57	TASK	2	1.56927178929482	2	RIGHT	28	1	0	1	66	419.516868844705	418.52217420937	419.516868844705
429.514175293039	4	58	TASK	2	0.544703665294946	2	RIGHT	28	1	0	1	48	430.508906610705	429.514175293039	430.508906610705
443.507019019039	4	59	TASK	2	1.37491044029503	2	RIGHT	28	1	0	1	99	444.518345251705	443.507019019039	444.518345251705
448.033160960705	4	60	TASK	2	1.49053706129507	1	LEFT	5	1	0	1	98	449.011325551705	448.033160960705	449.011325551705
453.023458653705	4	61	TASK	2	0.680720135294905	2	RIGHT	28	1	0	1	62	454.018172709705	453.023458653705	454.018172709705
459.52248451704	2	62	CONTROL	1	0.621831120960906	1	LEFT	5	1	1	0	0	459.539038924039	459.52248451704	459.539038924039
465.010201484705	4	63	TASK	2	0.994513893656404	1	LEFT	5	1	0	1	102	466.005037958344	465.010201484705	466.005037958344
473.515368039039	4	64	TASK	2	0.942703305656778	2	RIGHT	28	1	0	1	82	474.510241757343	473.515368039039	474.510241757343
