onset	duration	trial_number	trial_type	reaction_time	response_coded	response_str	pairno_rec	enc_codes_during_rec	onset_noTriggerAdjust
0.0787778437497764	3	1	CORRECTLY	3.63407557324899	10	MAYBE_INCORRECT	3	6	0.0787778437497764
4.5218868131069	3	2	INCORRECTLY	2.79108051789262	21	SURE_INCORRECT	55	0	4.5218868131069
13.0104307408037	2	3	CONTROL	0.00879349419483333	5	n/a	1000	0	13.0104307408037
16.0610367108038	3	4	CORRECTLY	2.51139894219523	21	SURE_INCORRECT	12	0	16.0610367108038
21.0181538398028	3	5	CORRECTLY	3.08004271419668	28	MAYBE_CORRECT	8	15	21.0181538398028
25.0636417484984	2	6	CONTROL	1.64465983050104	28	n/a	1000	0	25.0636417484984
29.0093421874972	3	7	INCORRECTLY	2.63055058350255	10	MAYBE_INCORRECT	59	0	29.0093421874972
36.0223401764979	3	8	CORRECTLY	2.46108795050168	10	MAYBE_INCORRECT	7	13	36.0223401764979
40.5153463078022	3	9	INCORRECTLY	2.29648547619763	10	MAYBE_INCORRECT	68	0	40.5153463078022
47.0143654311069	3	10	INCORRECTLY	0.711920290892522	28	MAYBE_CORRECT	64	0	47.0143654311069
51.0597796434467	3	11	CORRECTLY	1.83540458155221	10	MAYBE_INCORRECT	6	12	51.0597796434467
56.0168852268034	2	12	CONTROL	1.64243343219641	5	n/a	1000	0	56.0168852268034
61.5212357308028	3	13	INCORRECTLY	2.22857368319637	10	MAYBE_INCORRECT	78	0	61.5212357308028
65.5665913071407	3	14	CORRECTLY	1.47473828385773	10	MAYBE_INCORRECT	16	31	65.5665913071407
69.5620968511066	3	15	CORRECTLY	1.01934105789223	10	MAYBE_INCORRECT	14	0	69.5620968511066
75.0166876931071	3	16	CORRECTLY	2.78016534589187	5	SURE_CORRECT	1	3	75.0166876931071
79.0785806561071	3	17	CORRECTLY	n/a	n/a	n/a	5	11	79.0785806561071
83.5217744888032	3	18	INCORRECTLY	0.935879262195158	5	SURE_CORRECT	51	0	83.5217744888032
90.0208833751058	3	19	INCORRECTLY	3.43382995289357	5	SURE_CORRECT	47	0	90.0208833751058
94.0662551631412	3	20	INCORRECTLY	3.33851314685853	28	MAYBE_CORRECT	66	0	94.0662551631412
99.0233538821067	3	21	CORRECTLY	3.02671933089186	28	MAYBE_CORRECT	10	20	99.0233538821067
103.068746471447	3	22	INCORRECTLY	1.82519233355197	5	SURE_CORRECT	48	0	103.068746471447
107.080881654107	3	23	INCORRECTLY	1.49010291889317	28	MAYBE_CORRECT	52	0	107.080881654107
115.022290691802	3	24	INCORRECTLY	2.3457238521969	5	SURE_CORRECT	45	0	115.022290691802
119.515204007106	3	25	CORRECTLY	0.819547847893773	28	MAYBE_CORRECT	9	18	119.515204007106
125.516951121106	3	26	INCORRECTLY	2.97486619289339	10	MAYBE_INCORRECT	42	0	125.516951121106
131.021197581804	3	27	INCORRECTLY	1.95325383719501	28	MAYBE_CORRECT	80	0	131.021197581804
137.022857199803	3	28	CORRECTLY	0.535548889196434	10	MAYBE_INCORRECT	2	5	137.022857199803
142.013217111446	2	29	CONTROL	2.73977926255429	10	n/a	1000	0	142.013217111446
145.063923138874	3	30	INCORRECTLY	1.71824797712543	28	MAYBE_CORRECT	56	0	145.063923138874
150.518383125107	3	31	INCORRECTLY	1.69786520489288	10	MAYBE_INCORRECT	43	0	150.518383125107
155.011250133497	3	32	INCORRECTLY	1.71084790650275	10	MAYBE_INCORRECT	58	0	155.011250133497
159.520811150804	3	33	CORRECTLY	1.80364804019518	10	MAYBE_INCORRECT	4	9	159.520811150804
167.014627089105	3	34	CORRECTLY	2.81746570389441	28	MAYBE_CORRECT	13	0	167.014627089105
173.513736049803	3	35	CORRECTLY	1.92338770819697	28	MAYBE_CORRECT	11	21	173.513736049803
178.520646939107	3	36	CORRECTLY	1.48961982489163	10	MAYBE_INCORRECT	15	30	178.520646939107
182.565957030107	3	37	INCORRECTLY	0.854642407892243	28	MAYBE_CORRECT	46	0	182.565957030107
188.517889744106	2	38	CONTROL	1.49608938289384	5	n/a	1000	0	188.517889744106
193.508243114105	2	39	CONTROL	1.52209751789451	28	n/a	1000	0	193.508243114105
198.017758946498	3	40	INCORRECTLY	1.98063393350094	28	MAYBE_CORRECT	62	0	198.017758946498
203.024667309803	2	41	CONTROL	2.50166573619572	28	n/a	1000	0	203.024667309803
207.517657463106	2	42	CONTROL	1.66231122189311	10	n/a	1000	0	207.517657463106
211.015789667803	2	43	CONTROL	1.52385521119686	28	n/a	1000	0	211.015789667803
218.509656319498	3	44	INCORRECTLY	2.91471545550121	10	MAYBE_INCORRECT	49	0	218.509656319498
224.013959237107	3	45	CORRECTLY	2.86763848989176	10	MAYBE_INCORRECT	27	47	224.013959237107
229.518246671107	3	46	CORRECTLY	1.553266862893	28	MAYBE_CORRECT	30	53	229.518246671107
235.022555756803	3	47	INCORRECTLY	1.95545164719624	28	MAYBE_CORRECT	75	0	235.022555756803
244.522360879802	3	48	CORRECTLY	2.2089415231967	5	SURE_CORRECT	35	58	244.522360879802
252.016231562409	3	49	CORRECTLY	1.54423590658917	10	MAYBE_INCORRECT	32	55	252.016231562409
256.078079219105	2	50	CONTROL	1.95313462389458	28	n/a	1000	0	256.078079219105
259.078986427803	3	51	INCORRECTLY	1.41618738919533	28	MAYBE_CORRECT	70	0	259.078986427803
267.020400719803	2	52	CONTROL	n/a	n/a	n/a	1000	0	267.020400719803
272.508040312803	3	53	INCORRECTLY	1.89459112319673	28	MAYBE_CORRECT	79	0	272.508040312803
277.515051600803	3	54	INCORRECTLY	2.86593644719505	5	SURE_CORRECT	65	0	277.515051600803
282.007983250107	2	55	CONTROL	1.84041120589245	5	n/a	1000	0	282.007983250107
285.075068178498	3	56	INCORRECTLY	2.62230895450193	5	SURE_CORRECT	53	0	285.075068178498
292.021810236107	3	57	INCORRECTLY	2.23496541189161	5	SURE_CORRECT	76	0	292.021810236107
296.067153429804	2	58	CONTROL	1.80242236819504	5	n/a	1000	0	296.067153429804
300.012931651803	3	59	INCORRECTLY	1.88385819919677	5	SURE_CORRECT	41	0	300.012931651803
305.517327294874	2	60	CONTROL	2.47932818812478	10	n/a	1000	0	305.517327294874
310.010193662803	3	61	INCORRECTLY	2.01463945419528	10	MAYBE_INCORRECT	63	0	310.010193662803
318.018050973409	3	62	CORRECTLY	1.62749213159077	10	MAYBE_INCORRECT	38	61	318.018050973409
325.014369614497	3	63	CORRECTLY	0.477999181503037	10	MAYBE_INCORRECT	24	41	325.014369614497
330.021356479107	3	64	CORRECTLY	1.43888057789263	28	MAYBE_CORRECT	21	37	330.021356479107
335.525627826497	3	65	INCORRECTLY	0.617638964502476	28	MAYBE_CORRECT	67	0	335.525627826497
341.510687435803	3	66	CORRECTLY	0.935828404197309	28	MAYBE_CORRECT	34	57	341.510687435803
346.517590637106	3	67	INCORRECTLY	1.77806539089397	10	MAYBE_INCORRECT	60	0	346.517590637106
351.027124959106	2	68	CONTROL	1.32619918889395	5	n/a	1000	0	351.027124959106
355.022722775802	3	69	CORRECTLY	2.7680633721975	10	MAYBE_INCORRECT	22	38	355.022722775802
362.516535103106	3	70	CORRECTLY	2.89033904989265	10	MAYBE_INCORRECT	25	44	362.516535103106
367.009483369498	3	71	INCORRECTLY	1.86281450349998	10	MAYBE_INCORRECT	71	0	367.009483369498
371.071446559106	3	72	INCORRECTLY	1.14590747089278	21	SURE_INCORRECT	57	0	371.071446559106
375.514622049106	3	73	CORRECTLY	1.19231964989376	21	SURE_INCORRECT	19	35	375.514622049106
381.019001964803	2	74	CONTROL	1.83730123319583	10	n/a	1000	0	381.019001964803
386.025851894497	3	75	INCORRECTLY	2.2089394925024	28	MAYBE_CORRECT	74	0	386.025851894497
391.513618319803	2	76	CONTROL	1.47177418819592	10	n/a	1000	0	391.513618319803
395.509181497802	3	77	CORRECTLY	2.51699007319621	10	MAYBE_INCORRECT	17	32	395.509181497802
401.013463650106	2	78	CONTROL	1.36830666589231	5	n/a	1000	0	401.013463650106
405.009051603107	3	79	INCORRECTLY	2.52786908289272	5	SURE_CORRECT	77	0	405.009051603107
409.518589039106	2	80	CONTROL	1.33409623789339	10	n/a	1000	0	409.518589039106
415.520229129497	3	81	INCORRECTLY	1.63603598350164	10	MAYBE_INCORRECT	44	0	415.520229129497
421.521989166105	3	82	CORRECTLY	2.00207187089472	10	MAYBE_INCORRECT	40	64	421.521989166105
426.01495690441	3	83	CORRECTLY	2.51291463858979	21	SURE_INCORRECT	28	48	426.01495690441
430.060254606105	3	84	INCORRECTLY	1.64864794089408	5	SURE_CORRECT	50	0	430.060254606105
437.023480471498	3	85	INCORRECTLY	2.02240230950156	5	SURE_CORRECT	72	0	437.023480471498
443.522583476803	3	86	INCORRECTLY	2.35364864719668	28	MAYBE_CORRECT	69	0	443.522583476803
447.567844051802	3	87	CORRECTLY	2.37292400619663	5	SURE_CORRECT	18	34	447.567844051802
452.508467067802	2	88	CONTROL	1.36898647219641	10	n/a	1000	0	452.508467067802
455.575587640105	2	89	CONTROL	1.49899429289326	28	n/a	1000	0	455.575587640105
462.024942595803	3	90	INCORRECTLY	2.49077172819671	28	MAYBE_CORRECT	61	0	462.024942595803
466.070251934107	2	91	CONTROL	2.21061796289177	5	n/a	1000	0	466.070251934107
470.513549757054	3	92	INCORRECTLY	2.02230669794517	28	MAYBE_CORRECT	73	0	470.513549757054
474.575394608106	3	93	CORRECTLY	1.7905789388933	28	MAYBE_CORRECT	29	52	474.575394608106
479.515965816106	3	94	CORRECTLY	1.18006589589277	5	SURE_CORRECT	20	36	479.515965816106
484.522868358803	2	95	CONTROL	2.67701841519556	28	n/a	1000	0	484.522868358803
489.015893318498	3	96	CORRECTLY	2.79795168250166	10	MAYBE_INCORRECT	31	54	489.015893318498
493.077731535106	3	97	CORRECTLY	1.38063349589356	21	SURE_INCORRECT	23	40	493.077731535106
498.018368105106	3	98	CORRECTLY	0.784045508893541	10	MAYBE_INCORRECT	37	60	498.018368105106
502.511319183803	3	99	CORRECTLY	1.5206949191961	28	MAYBE_CORRECT	36	59	502.511319183803
506.573220128803	2	100	CONTROL	2.31398648619688	21	n/a	1000	0	506.573220128803
510.021734069107	3	101	INCORRECTLY	2.00223980989176	28	MAYBE_CORRECT	54	0	510.021734069107
514.067003422106	3	102	CORRECTLY	1.13353457889389	5	SURE_CORRECT	39	63	514.067003422106
518.079147783497	3	103	CORRECTLY	1.19525544150201	5	SURE_CORRECT	33	56	518.079147783497
522.058192976803	3	104	CORRECTLY	1.22457402219516	5	SURE_CORRECT	26	45	522.058192976803
