onset	duration	trial_number	trial_type	reaction_time	response_coded	response_str	pairno_rec	enc_codes_during_rec	onset_noTriggerAdjust
0.0786596309153538	3	1	CORRECTLY	2.39027097608505	5	SURE_CORRECT	3	6	0.0786596309153538
4.52189672331951	3	2	INCORRECTLY	n/a	n/a	n/a	55	0	4.52189672331951
13.0104142349155	2	3	CONTROL	1.05549483308459	5	n/a	1000	0	13.0104142349155
16.0776412729156	3	4	CORRECTLY	1.84366706808441	5	SURE_CORRECT	12	0	16.0776412729156
21.0181685949156	3	5	CORRECTLY	1.58859765808484	5	SURE_CORRECT	8	15	21.0181685949156
25.0635161899154	2	6	CONTROL	1.40839025108471	28	n/a	1000	0	25.0635161899154
29.0093590415113	3	7	INCORRECTLY	2.21779137048907	21	SURE_INCORRECT	59	0	29.0093590415113
36.0058946638728	3	8	CORRECTLY	2.17047891212724	5	SURE_CORRECT	7	13	36.0058946638728
40.5153523509152	3	9	INCORRECTLY	2.86306694108498	21	SURE_INCORRECT	68	0	40.5153523509152
47.0144262145113	3	10	INCORRECTLY	2.80177272148876	21	SURE_INCORRECT	64	0	47.0144262145113
51.0598078582343	3	11	CORRECTLY	3.66872627876592	21	SURE_INCORRECT	6	12	51.0598078582343
56.0169293309154	2	12	CONTROL	1.50778263408483	5	n/a	1000	0	56.0169293309154
61.5211966225111	3	13	INCORRECTLY	1.77085952448897	21	SURE_INCORRECT	78	0	61.5211966225111
65.5665119283199	3	14	CORRECTLY	2.21534804668045	10	MAYBE_INCORRECT	16	31	65.5665119283199
69.5621496049152	3	15	CORRECTLY	1.65080387408489	10	MAYBE_INCORRECT	14	0	69.5621496049152
75.016680507511	3	16	CORRECTLY	1.08689719448921	5	SURE_CORRECT	1	3	75.016680507511
79.078621837511	3	17	CORRECTLY	2.21801754348917	5	SURE_CORRECT	5	11	79.078621837511
83.5217944919154	3	18	INCORRECTLY	2.05370390108465	21	SURE_INCORRECT	51	0	83.5217944919154
90.0208514339156	3	19	INCORRECTLY	1.65281370408456	21	SURE_INCORRECT	47	0	90.0208514339156
94.0662274368729	3	20	INCORRECTLY	2.78776514412721	21	SURE_INCORRECT	66	0	94.0662274368729
99.0233696479154	3	21	CORRECTLY	2.67079626408486	5	SURE_CORRECT	10	20	99.0233696479154
103.068666261915	3	22	INCORRECTLY	1.6963475010848	21	SURE_INCORRECT	48	0	103.068666261915
107.064256672511	3	23	INCORRECTLY	2.01020492148928	21	SURE_INCORRECT	52	0	107.064256672511
115.022305566511	3	24	INCORRECTLY	2.12947039948904	10	MAYBE_INCORRECT	45	0	115.022305566511
119.515227703511	3	25	CORRECTLY	1.80197572348879	5	SURE_CORRECT	9	18	119.515227703511
125.516887212319	3	26	INCORRECTLY	1.64636793068075	10	MAYBE_INCORRECT	42	0	125.516887212319
131.021206131511	3	27	INCORRECTLY	2.36438219748925	21	SURE_INCORRECT	80	0	131.021206131511
137.006258801915	3	28	CORRECTLY	2.31604225408455	28	MAYBE_CORRECT	2	5	137.006258801915
142.013251073107	2	29	CONTROL	1.71410539889348	10	n/a	1000	0	142.013251073107
145.08039943132	3	30	INCORRECTLY	2.29829535368071	10	MAYBE_INCORRECT	56	0	145.08039943132
150.518365595511	3	31	INCORRECTLY	2.52796162848927	21	SURE_INCORRECT	43	0	150.518365595511
155.02785024732	3	32	INCORRECTLY	2.36434898468042	10	MAYBE_INCORRECT	58	0	155.02785024732
159.520910324107	3	33	CORRECTLY	2.17938643189336	21	SURE_INCORRECT	4	9	159.520910324107
167.014644669915	3	34	CORRECTLY	1.43723773908459	5	SURE_CORRECT	13	0	167.014644669915
173.513677335915	3	35	CORRECTLY	1.70688191208455	5	SURE_CORRECT	11	21	173.513677335915
178.520664318511	3	36	CORRECTLY	2.01141189548889	28	MAYBE_CORRECT	15	30	178.520664318511
182.565906471511	3	37	INCORRECTLY	2.41272680148904	21	SURE_INCORRECT	46	0	182.565906471511
188.517894005915	2	38	CONTROL	1.19274443508493	28	n/a	1000	0	188.517894005915
193.508183089511	2	39	CONTROL	1.27254151048919	28	n/a	1000	0	193.508183089511
198.017742596511	3	40	INCORRECTLY	1.97503359748907	28	MAYBE_CORRECT	62	0	198.017742596511
203.024730629511	2	41	CONTROL	1.25889224248931	5	n/a	1000	0	203.024730629511
207.517677899511	2	42	CONTROL	1.02701763848927	10	n/a	1000	0	207.517677899511
211.015851258916	2	43	CONTROL	1.18024060008474	28	n/a	1000	0	211.015851258916
218.509676049511	3	44	INCORRECTLY	2.63193101248908	21	SURE_INCORRECT	49	0	218.509676049511
224.013950847873	3	45	CORRECTLY	2.04567445112752	10	MAYBE_INCORRECT	27	47	224.013950847873
229.518280731511	3	46	CORRECTLY	1.56779244948893	5	SURE_CORRECT	30	53	229.518280731511
235.022523913511	3	47	INCORRECTLY	2.35237894248894	21	SURE_INCORRECT	75	0	235.022523913511
244.522390726107	3	48	CORRECTLY	1.57657626689297	5	SURE_CORRECT	35	58	244.522390726107
252.01616391932	3	49	CORRECTLY	2.28084314868056	21	SURE_INCORRECT	32	55	252.01616391932
256.078152069916	2	50	CONTROL	1.79987353808474	21	n/a	1000	0	256.078152069916
259.062440213234	3	51	INCORRECTLY	2.2337640397659	10	MAYBE_INCORRECT	70	0	259.062440213234
267.02038169832	2	52	CONTROL	1.18066057368014	21	n/a	1000	0	267.02038169832
272.524655942511	3	53	INCORRECTLY	1.754239490489	21	SURE_INCORRECT	79	0	272.524655942511
277.515059740916	3	54	INCORRECTLY	1.91907640208456	10	MAYBE_INCORRECT	65	0	277.515059740916
282.007947574915	2	55	CONTROL	1.07414043008475	5	n/a	1000	0	282.007947574915
285.075169616915	3	56	INCORRECTLY	1.56726024708496	21	SURE_INCORRECT	53	0	285.075169616915
292.005200512916	3	57	INCORRECTLY	1.74190172608451	21	SURE_INCORRECT	76	0	292.005200512916
296.067112187915	2	58	CONTROL	0.792017229084649	5	n/a	1000	0	296.067112187915
300.013041560916	3	59	INCORRECTLY	2.19846923308478	21	SURE_INCORRECT	41	0	300.013041560916
305.517348010511	2	60	CONTROL	1.19068525448893	10	n/a	1000	0	305.517348010511
310.026784470916	3	61	INCORRECTLY	2.21846417608458	10	MAYBE_INCORRECT	63	0	310.026784470916
318.018020498916	3	62	CORRECTLY	2.55073269308468	28	MAYBE_CORRECT	38	61	318.018020498916
325.014417803511	3	63	CORRECTLY	1.56520140148905	5	SURE_CORRECT	24	41	325.014417803511
330.021347677915	3	64	CORRECTLY	1.27569802208473	5	SURE_CORRECT	21	37	330.021347677915
335.525639238916	3	65	INCORRECTLY	2.0245656780844	10	MAYBE_INCORRECT	67	0	335.525639238916
341.510795645107	3	66	CORRECTLY	1.83579067789333	28	MAYBE_CORRECT	34	57	341.510795645107
346.517655274511	3	67	INCORRECTLY	2.45820930248919	28	MAYBE_CORRECT	60	0	346.517655274511
351.010647162873	2	68	CONTROL	1.4705358461274	21	n/a	1000	0	351.010647162873
355.022798896511	3	69	CORRECTLY	1.28816290148916	5	SURE_CORRECT	22	38	355.022798896511
362.516544500915	3	70	CORRECTLY	1.32252052108515	5	SURE_CORRECT	25	44	362.516544500915
367.009520200916	3	71	INCORRECTLY	1.68325579108478	21	SURE_INCORRECT	71	0	367.009520200916
371.07142383632	3	72	INCORRECTLY	2.25716521668028	10	MAYBE_INCORRECT	57	0	371.07142383632
375.514736572107	3	73	CORRECTLY	2.27931863289359	5	SURE_CORRECT	19	35	375.514736572107
381.019017824915	2	74	CONTROL	1.03738509508457	28	n/a	1000	0	381.019017824915
386.025841282511	3	75	INCORRECTLY	1.61277998448895	21	SURE_INCORRECT	74	0	386.025841282511
391.513571642915	2	76	CONTROL	1.23719129708479	10	n/a	1000	0	391.513571642915
395.525804094511	3	77	CORRECTLY	2.18800559948932	21	SURE_INCORRECT	17	32	395.525804094511
401.013537279234	2	78	CONTROL	1.42277941376597	5	n/a	1000	0	401.013537279234
405.025671997319	3	79	INCORRECTLY	1.7765917536808	21	SURE_INCORRECT	77	0	405.025671997319
409.518627777915	2	80	CONTROL	0.943515576084792	10	n/a	1000	0	409.518627777915
415.520285532511	3	81	INCORRECTLY	2.25680715148928	10	MAYBE_INCORRECT	44	0	415.520285532511
421.522027915915	3	82	CORRECTLY	1.85981619308495	10	MAYBE_INCORRECT	40	64	421.522027915915
426.014922362873	3	83	CORRECTLY	1.90230939412731	5	SURE_CORRECT	28	48	426.014922362873
430.060274412511	3	84	INCORRECTLY	1.49407727048902	21	SURE_INCORRECT	50	0	430.060274412511
437.023517272511	3	85	INCORRECTLY	1.74268311548894	10	MAYBE_INCORRECT	72	0	437.023517272511
443.522557572511	3	86	INCORRECTLY	1.34542266148901	21	SURE_INCORRECT	69	0	443.522557572511
447.567983237064	3	87	CORRECTLY	2.86552296893615	28	MAYBE_CORRECT	18	34	447.567983237064
452.508429272915	2	88	CONTROL	1.29693738608512	10	n/a	1000	0	452.508429272915
455.559156600469	2	89	CONTROL	1.38908018953134	28	n/a	1000	0	455.559156600469
462.008322630915	3	90	INCORRECTLY	2.05917253808502	10	MAYBE_INCORRECT	61	0	462.008322630915
466.070287046468	2	91	CONTROL	1.39362004253189	21	n/a	1000	0	466.070287046468
470.513460521915	3	92	INCORRECTLY	2.14058544408454	10	MAYBE_INCORRECT	73	0	470.513460521915
474.575442498468	3	93	CORRECTLY	1.79961617453182	21	SURE_INCORRECT	29	52	474.575442498468
479.516005925916	3	94	CORRECTLY	2.39869735508455	28	MAYBE_CORRECT	20	36	479.516005925916
484.506436609234	2	95	CONTROL	1.07436395776585	10	n/a	1000	0	484.506436609234
489.015930088107	3	96	CORRECTLY	1.68382745289318	10	MAYBE_INCORRECT	31	54	489.015930088107
493.077753633916	3	97	CORRECTLY	2.30759239108465	28	MAYBE_CORRECT	23	40	493.077753633916
498.018392911511	3	98	CORRECTLY	1.90379148748934	10	MAYBE_INCORRECT	37	60	498.018392911511
502.511345778511	3	99	CORRECTLY	1.13366323048922	5	SURE_CORRECT	36	59	502.511345778511
506.573274074511	2	100	CONTROL	1.36886056448884	21	n/a	1000	0	506.573274074511
510.021731911916	3	101	INCORRECTLY	1.76391596008443	21	SURE_INCORRECT	54	0	510.021731911916
514.06707812632	3	102	CORRECTLY	1.44771508268059	5	SURE_CORRECT	39	63	514.06707812632
518.079235668915	3	103	CORRECTLY	2.57445195908485	28	MAYBE_CORRECT	33	56	518.079235668915
522.058178928915	3	104	CORRECTLY	1.68277393208473	5	SURE_CORRECT	26	45	522.058178928915
