onset	duration	trial_number	trial_type	reaction_time	response_coded	response_str	pairno_rec	enc_codes_during_rec	onset_noTriggerAdjust
0.0950813620897861	3	1	CORRECTLY	1.78284595291029	5	SURE_CORRECT	3	6	0.0950813620897861
4.52163607443777	3	2	INCORRECTLY	3.02311998056234	21	SURE_INCORRECT	55	0	4.52163607443777
13.0102403342637	2	3	CONTROL	1.43293164773627	5	n/a	1000	0	13.0102403342637
16.0608681208059	3	4	CORRECTLY	1.54869023819401	5	SURE_CORRECT	12	0	16.0608681208059
21.0179560928507	3	5	CORRECTLY	1.42683677314926	5	SURE_CORRECT	8	15	21.0179560928507
25.0633235306766	2	6	CONTROL	1.33003293332331	28	n/a	1000	0	25.0633235306766
29.0091113878507	3	7	INCORRECTLY	3.27774846414923	5	SURE_CORRECT	59	0	29.0091113878507
36.0221427342638	3	8	CORRECTLY	1.7540415887363	5	SURE_CORRECT	7	13	36.0221427342638
40.5151082612638	3	9	INCORRECTLY	1.83762533673621	21	SURE_INCORRECT	68	0	40.5151082612638
47.0141857282638	3	10	INCORRECTLY	1.96226146473623	21	SURE_INCORRECT	64	0	47.0141857282638
51.0760676708508	3	11	CORRECTLY	1.45646601214935	5	SURE_CORRECT	6	12	51.0760676708508
56.0166440718508	2	12	CONTROL	0.878631237149193	5	n/a	1000	0	56.0166440718508
61.5209029234379	3	13	INCORRECTLY	1.75036950556205	21	SURE_INCORRECT	78	0	61.5209029234379
65.5662736844379	3	14	CORRECTLY	1.68129762756212	5	SURE_CORRECT	16	31	65.5662736844379
69.5784514038507	3	15	CORRECTLY	1.15952864614928	5	SURE_CORRECT	14	0	69.5784514038507
75.0164173582639	3	16	CORRECTLY	0.905550251736031	5	SURE_CORRECT	1	3	75.0164173582639
79.0783572768507	3	17	CORRECTLY	1.51613079914932	5	SURE_CORRECT	5	11	79.0783572768507
83.5215177304378	3	18	INCORRECTLY	1.54957283256226	21	SURE_INCORRECT	51	0	83.5215177304378
90.0206407762637	3	19	INCORRECTLY	1.66264191073628	21	SURE_INCORRECT	47	0	90.0206407762637
94.0659871833932	3	20	INCORRECTLY	1.40931340560678	21	SURE_INCORRECT	66	0	94.0659871833932
99.0231098478507	3	21	CORRECTLY	1.36847533614923	5	SURE_CORRECT	10	20	99.0231098478507
103.068407890438	3	22	INCORRECTLY	1.18676890956226	21	SURE_INCORRECT	48	0	103.068407890438
107.064027286806	3	23	INCORRECTLY	1.82409390119392	21	SURE_INCORRECT	52	0	107.064027286806
115.022045874438	3	24	INCORRECTLY	1.51877560256207	21	SURE_INCORRECT	45	0	115.022045874438
119.514974704677	3	25	CORRECTLY	2.84784024432338	5	SURE_CORRECT	9	18	119.514974704677
125.516696783264	3	26	INCORRECTLY	1.57058481973627	21	SURE_INCORRECT	42	0	125.516696783264
131.021007820677	3	27	INCORRECTLY	2.25321374532336	21	SURE_INCORRECT	80	0	131.021007820677
137.022633463851	3	28	CORRECTLY	1.81806214014932	5	SURE_CORRECT	2	5	137.022633463851
142.012987297632	2	29	CONTROL	1.84730017936795	10	n/a	1000	0	142.012987297632
145.063530229264	3	30	INCORRECTLY	2.54306557073619	21	SURE_INCORRECT	56	0	145.063530229264
150.518173305697	3	31	INCORRECTLY	1.3482229153035	21	SURE_INCORRECT	43	0	150.518173305697
155.011021869264	3	32	INCORRECTLY	1.51067799273642	21	SURE_INCORRECT	58	0	155.011021869264
159.520593929438	3	33	CORRECTLY	3.14297870756218	5	SURE_CORRECT	4	9	159.520593929438
167.014377745438	3	34	CORRECTLY	1.27404883356212	5	SURE_CORRECT	13	0	167.014377745438
173.513516039567	3	35	CORRECTLY	1.39553590143259	21	SURE_INCORRECT	11	21	173.513516039567
178.520348631851	3	36	CORRECTLY	2.27921396014926	21	SURE_INCORRECT	15	30	178.520348631851
182.565694008264	3	37	INCORRECTLY	2.89474914673633	21	SURE_INCORRECT	46	0	182.565694008264
188.517578050851	2	38	CONTROL	1.47925814214932	28	n/a	1000	0	188.517578050851
193.507994141264	2	39	CONTROL	1.12735479573644	28	n/a	1000	0	193.507994141264
198.017498667851	3	40	INCORRECTLY	1.83250750914931	21	SURE_INCORRECT	62	0	198.017498667851
203.007879089264	2	41	CONTROL	1.16363077473625	5	n/a	1000	0	203.007879089264
207.517424464851	2	42	CONTROL	1.97390526714912	21	n/a	1000	0	207.517424464851
211.015632660851	2	43	CONTROL	1.24584504714926	28	n/a	1000	0	211.015632660851
218.525998329851	3	44	INCORRECTLY	2.60172043814941	21	SURE_INCORRECT	49	0	218.525998329851
224.01366149909	3	45	CORRECTLY	1.97078651991023	5	SURE_CORRECT	27	47	224.01366149909
229.517993108154	3	46	CORRECTLY	1.48151267884577	5	SURE_CORRECT	30	53	229.517993108154
235.022242852438	3	47	INCORRECTLY	1.18013657056213	21	SURE_INCORRECT	75	0	235.022242852438
244.505606168502	3	48	CORRECTLY	1.95552156049757	5	SURE_CORRECT	35	58	244.505606168502
252.016014921851	3	49	CORRECTLY	1.5540396321494	5	SURE_CORRECT	32	55	252.016014921851
256.077881280264	2	50	CONTROL	1.52650925873627	21	n/a	1000	0	256.077881280264
259.078748177851	3	51	INCORRECTLY	n/a	n/a	n/a	70	0	259.078748177851
267.020138776438	2	52	CONTROL	1.43316123756222	21	n/a	1000	0	267.020138776438
272.524444005264	3	53	INCORRECTLY	2.51475420673614	21	SURE_INCORRECT	79	0	272.524444005264
277.514798885264	3	54	INCORRECTLY	2.04564325373622	21	SURE_INCORRECT	65	0	277.514798885264
282.007694352264	2	55	CONTROL	1.23071588673633	5	n/a	1000	0	282.007694352264
285.074899978264	3	56	INCORRECTLY	2.33989916073619	21	SURE_INCORRECT	53	0	285.074899978264
292.021517668438	3	57	INCORRECTLY	1.4801532315621	21	SURE_INCORRECT	76	0	292.021517668438
296.066916559154	2	58	CONTROL	0.987096224845573	5	n/a	1000	0	296.066916559154
300.029308364264	3	59	INCORRECTLY	1.36558869373607	21	SURE_INCORRECT	41	0	300.029308364264
305.517051302264	2	60	CONTROL	1.64505587973622	10	n/a	1000	0	305.517051302264
310.010003113677	3	61	INCORRECTLY	1.46265983632338	21	SURE_INCORRECT	63	0	310.010003113677
318.017719242438	3	62	CORRECTLY	1.33513932156211	5	SURE_CORRECT	38	61	318.017719242438
325.014238364264	3	63	CORRECTLY	1.1423665237362	5	SURE_CORRECT	24	41	325.014238364264
330.021150101851	3	64	CORRECTLY	1.40852013914923	5	SURE_CORRECT	21	37	330.021150101851
335.525364798264	3	65	INCORRECTLY	1.11741940073625	21	SURE_INCORRECT	67	0	335.525364798264
341.510494285264	3	66	CORRECTLY	1.18502674773617	5	SURE_CORRECT	34	57	341.510494285264
346.517408054264	3	67	INCORRECTLY	1.58912957573625	21	SURE_INCORRECT	60	0	346.517408054264
351.010380159677	2	68	CONTROL	1.80540254732318	21	n/a	1000	0	351.010380159677
355.022501384851	3	69	CORRECTLY	1.44556098514931	5	SURE_CORRECT	22	38	355.022501384851
362.516369954677	3	70	CORRECTLY	1.51703852132323	5	SURE_CORRECT	25	44	362.516369954677
367.009259324438	3	71	INCORRECTLY	1.42345828456223	21	SURE_INCORRECT	71	0	367.009259324438
371.054688936806	3	72	INCORRECTLY	1.71328780219392	21	SURE_INCORRECT	57	0	371.054688936806
375.514487305697	3	73	CORRECTLY	2.02906010530342	21	SURE_INCORRECT	19	35	375.514487305697
381.018743413851	2	74	CONTROL	1.33863156314942	28	n/a	1000	0	381.018743413851
386.009109819851	3	75	INCORRECTLY	2.01215358714944	21	SURE_INCORRECT	74	0	386.009109819851
391.513410799264	2	76	CONTROL	1.36389188173621	10	n/a	1000	0	391.513410799264
395.50891920909	3	77	CORRECTLY	2.17638487091017	5	SURE_CORRECT	17	32	395.50891920909
401.013296710219	2	78	CONTROL	1.33856984778095	5	n/a	1000	0	401.013296710219
405.025358604851	3	79	INCORRECTLY	1.34006984714938	21	SURE_INCORRECT	77	0	405.025358604851
409.518437710697	2	80	CONTROL	1.35106415430346	10	n/a	1000	0	409.518437710697
415.520042072438	3	81	INCORRECTLY	1.49097709456214	21	SURE_INCORRECT	44	0	415.520042072438
421.521671332264	3	82	CORRECTLY	1.89252575573619	5	SURE_CORRECT	40	64	421.521671332264
426.014625953438	3	83	CORRECTLY	1.79785859456206	5	SURE_CORRECT	28	48	426.014625953438
430.076615362806	3	84	INCORRECTLY	1.51667948919408	21	SURE_INCORRECT	50	0	430.076615362806
437.023239826438	3	85	INCORRECTLY	1.80889313956209	21	SURE_INCORRECT	72	0	437.023239826438
443.522255813438	3	86	INCORRECTLY	1.85799450556215	21	SURE_INCORRECT	69	0	443.522255813438
447.56766020598	3	87	CORRECTLY	1.31783640501999	5	SURE_CORRECT	18	34	447.56766020598
452.524768567264	2	88	CONTROL	1.25695996373611	10	n/a	1000	0	452.524768567264
455.575359807851	2	89	CONTROL	1.77623141014942	28	n/a	1000	0	455.575359807851
462.024714547851	3	90	INCORRECTLY	2.30290663314941	21	SURE_INCORRECT	61	0	462.024714547851
466.070010970851	2	91	CONTROL	1.51442955114931	5	n/a	1000	0	466.070010970851
470.513298319677	3	92	INCORRECTLY	1.76627905132341	21	SURE_INCORRECT	73	0	470.513298319677
474.558579605851	3	93	CORRECTLY	2.14290016514929	5	SURE_CORRECT	29	52	474.558579605851
479.515757243851	3	94	CORRECTLY	1.15137550314944	5	SURE_CORRECT	20	36	479.515757243851
484.522683151264	2	95	CONTROL	1.19577307473605	10	n/a	1000	0	484.522683151264
489.015681852264	3	96	CORRECTLY	1.45594275673625	5	SURE_CORRECT	31	54	489.015681852264
493.077585505697	3	97	CORRECTLY	0.996210154303526	5	SURE_CORRECT	23	40	493.077585505697
498.018188880264	3	98	CORRECTLY	1.81866632473634	5	SURE_CORRECT	37	60	498.018188880264
502.511115066851	3	99	CORRECTLY	1.1383451251495	5	SURE_CORRECT	36	59	502.511115066851
506.573044152264	2	100	CONTROL	1.68846178573631	21	n/a	1000	0	506.573044152264
510.021431283438	3	101	INCORRECTLY	1.53851249756235	21	SURE_INCORRECT	54	0	510.021431283438
514.066867217632	3	102	CORRECTLY	1.80750146436822	5	SURE_CORRECT	39	63	514.066867217632
518.078914170438	3	103	CORRECTLY	1.10192473856205	5	SURE_CORRECT	33	56	518.078914170438
522.074514719438	3	104	CORRECTLY	1.18401587056201	5	SURE_CORRECT	26	45	522.074514719438
