onset	duration	trial_number	trial_type	trial_type_coded	reaction_time	expected_response_coded	response	response_coded	accuracy	accuracy_scrambled	accuracy_task	rec_codes_during_enc	onset_probe	onset_noTriggerAdjust	onset_probe_noTriggerAdjust
0.0158501470000374	2	1	CONTROL	1	n/a	1	n/a	n/a	0	0	0	0	0.0323889460000828	0.0158501470000374	0.0323889460000828
4.51670762899994	2	2	CONTROL	1	0.895084982999833	2	RIGHT	28	1	1	0	0	4.53323374399997	4.51670762899994	4.53323374399997
11.5160264399997	4	3	TASK	2	1.17044927300003	1	LEFT	5	1	0	1	16	12.5087748030001	11.5160264399997	12.5087748030001
19.5081419529997	2	4	CONTROL	1	1.04348570100001	1	LEFT	5	1	1	0	0	19.5247016369999	19.5081419529997	19.5247016369999
22.0397938239998	4	5	TASK	2	1.00308814900018	2	RIGHT	28	1	0	1	28	23.0160013119998	22.0397938239998	23.0160013119998
38.5204613669998	4	6	TASK	2	0.977800031000243	1	LEFT	5	1	0	1	1	39.5133256939998	38.5204613669998	39.5133256939998
49.5241633329997	2	7	CONTROL	1	0.858406433000255	2	RIGHT	28	1	1	0	0	49.5406913819997	49.5241633329997	49.5406913819997
56.5070214319999	2	8	CONTROL	1	0.975359672000195	2	RIGHT	28	1	1	0	0	56.5235161699998	56.5070214319999	56.5235161699998
66.0048895739997	4	9	TASK	2	1.38095916500015	2	RIGHT	28	1	0	1	33	67.0142169229998	66.0048895739997	67.0142169229998
70.5222118359998	2	10	CONTROL	1	0.826041325999995	2	RIGHT	28	1	1	0	0	70.538683149	70.5222118359998	70.538683149
76.015715044	4	11	TASK	2	2.12073102399972	2	RIGHT	28	1	0	1	17	77.008532587	76.015715044	77.008532587
81.5093107329999	4	12	TASK	2	1.41675145300042	2	RIGHT	28	1	0	1	11	82.5020610869997	81.5093107329999	82.5020610869997
92.5129781349997	4	13	TASK	2	1.52830205600003	1	LEFT	5	1	0	1	8	93.505764514	92.5129781349997	93.505764514
98.0065577390001	2	14	CONTROL	1	0.758203392000269	1	LEFT	5	1	1	0	0	98.0230674669997	98.0065577390001	98.0230674669997
104.525963968	4	15	TASK	2	1.26046612099981	1	LEFT	5	1	0	1	5	105.502266435	104.525963968	105.502266435
109.010200159	2	16	CONTROL	1	0.699669560000075	1	LEFT	5	1	1	0	0	109.026761921	109.010200159	109.026761921
112.021788378	2	17	CONTROL	1	1.19269808299987	2	RIGHT	28	1	1	0	0	112.038267954	112.021788378	112.038267954
118.508135802	4	18	TASK	2	1.17370716300002	2	RIGHT	28	1	0	1	25	119.500942658	118.508135802	119.500942658
125.011117819	2	19	CONTROL	1	1.30973660300015	1	LEFT	5	1	1	0	0	125.027611407	125.011117819	125.027611407
129.015376732	4	20	TASK	2	2.39893855599985	1	LEFT	5	1	0	1	21	130.008271284	129.015376732	130.008271284
135.005344003	4	21	TASK	2	1.33079010500023	2	RIGHT	28	1	0	1	35	136.014776761	135.005344003	136.014776761
151.006167824	4	22	TASK	2	1.67547218899972	1	LEFT	5	1	0	1	4	152.015585863	151.006167824	152.015585863
155.523494813	4	23	TASK	2	1.97594853100009	2	RIGHT	28	1	0	1	34	156.516320374	155.523494813	156.516320374
161.017070464	2	24	CONTROL	1	1.25178262600002	2	RIGHT	28	1	1	0	0	161.033613089	161.017070464	161.033613089
165.021382979	2	25	CONTROL	1	0.886005849999947	1	LEFT	5	1	1	0	0	165.037950611	165.021382979	165.037950611
174.519343387	2	26	CONTROL	1	0.782723892999911	2	RIGHT	28	1	1	0	0	174.535865641	174.519343387	174.535865641
179.516463609	2	27	CONTROL	1	0.981795798999883	2	RIGHT	28	1	1	0	0	179.533046193	179.516463609	179.533046193
182.048124646	4	28	TASK	2	1.51520175299993	2	RIGHT	28	1	0	1	15	183.00785118	182.048124646	183.00785118
189.01435713	2	29	CONTROL	1	0.832445197000197	2	RIGHT	28	1	1	0	0	189.030920215	189.01435713	189.030920215
193.01872819	4	30	TASK	2	1.71186422800019	2	RIGHT	28	1	0	1	36	194.01157206	193.01872819	194.01157206
202.020223878	4	31	TASK	2	1.83845081100026	2	RIGHT	28	1	0	1	14	203.013081851	202.020223878	203.013081851
209.516098512	4	32	TASK	2	1.06242958899975	1	LEFT	5	1	0	1	77	210.508786071	209.516098512	210.508786071
216.018941247	2	33	CONTROL	1	0.911101497000345	2	RIGHT	28	1	1	0	0	216.035442836	216.018941247	216.035442836
220.519652638	4	34	TASK	2	2.47053240399964	1	LEFT	5	1	0	1	87	221.512454435	220.519652638	221.512454435
226.01324395	4	35	TASK	2	2.13906067500011	1	LEFT	5	1	0	1	73	227.006044247	226.01324395	227.006044247
240.011864935	4	36	TASK	2	1.60413870800039	1	LEFT	5	1	0	1	94	241.004728236	240.011864935	241.004728236
254.010523473	4	37	TASK	2	1.32022716000029	1	LEFT	5	1	0	1	64	255.003433102	254.010523473	255.003433102
261.506308104	4	38	TASK	2	1.10961037199968	2	RIGHT	28	1	0	1	69	262.515625641	261.506308104	262.515625641
280.022236185	2	39	CONTROL	1	0.70938964700008	1	LEFT	5	1	1	0	0	280.038746199	280.022236185	280.038746199
283.017180812	4	40	TASK	2	1.30906055200012	2	RIGHT	28	1	0	1	97	284.01002598	283.017180812	284.01002598
292.018748854	4	41	TASK	2	1.38848804899999	1	LEFT	5	1	0	1	63	293.011531154	292.018748854	293.011531154
297.512287746	2	42	CONTROL	1	0.871619785999883	1	LEFT	5	1	1	0	0	297.528854909	297.512287746	297.528854909
305.521012686	2	43	CONTROL	1	0.57656337599974	1	LEFT	5	1	1	0	0	305.537564878	305.521012686	305.537564878
316.52467915	4	44	TASK	2	0.641238483000052	1	LEFT	5	1	0	1	70	317.517491958	316.52467915	317.517491958
324.02041841	4	45	TASK	2	0.701297941000121	1	LEFT	5	1	0	1	104	325.013240628	324.02041841	325.013240628
331.003194366	2	46	CONTROL	1	0.745663927999885	1	LEFT	5	1	1	0	0	331.019715818	331.003194366	331.019715818
336.513306256	4	47	TASK	2	0.79290533700032	2	RIGHT	28	1	0	1	45	337.506152407	336.513306256	337.506152407
347.020588117	4	48	TASK	2	0.732746917999975	2	RIGHT	28	1	0	1	83	348.013395726	347.020588117	348.013395726
358.007771638	2	49	CONTROL	1	0.866315932999896	1	LEFT	5	1	1	0	0	358.024226353	358.007771638	358.024226353
363.021453156	2	50	CONTROL	1	0.606945901000017	2	RIGHT	28	1	1	0	0	363.037968906	363.021453156	363.037968906
370.51719462	2	51	CONTROL	1	0.537269804000061	2	RIGHT	28	1	1	0	0	370.533680873	370.51719462	370.533680873
376.507162362	4	52	TASK	2	0.835486678000052	2	RIGHT	28	1	0	1	93	377.516521051	376.507162362	377.516521051
383.522981962	4	53	TASK	2	0.845234726999934	1	LEFT	5	1	0	1	46	384.515871052	383.522981962	384.515871052
390.52236959	4	54	TASK	2	0.717044930000156	2	RIGHT	28	1	0	1	96	391.51513046	390.52236959	391.51513046
405.017391912	4	55	TASK	2	1.6908013670004	2	RIGHT	28	1	0	1	49	406.010257579	405.017391912	406.010257579
412.016746522	4	56	TASK	2	0.830766074999701	2	RIGHT	28	1	0	1	103	413.00952808	412.016746522	413.00952808
418.519718853	4	57	TASK	2	1.00976325100009	2	RIGHT	28	1	0	1	66	419.512492987	418.519718853	419.512492987
429.506819646	4	58	TASK	2	1.55077759300002	2	RIGHT	28	1	0	1	48	430.516178564	429.506819646	430.516178564
443.521992908	4	59	TASK	2	1.74206047000007	2	RIGHT	28	1	0	1	99	444.514805725	443.521992908	444.514805725
448.02280257	4	60	TASK	2	2.11386101800008	1	LEFT	5	1	0	1	98	449.015590673	448.02280257	449.015590673
453.020098555	4	61	TASK	2	1.5475186550002	2	RIGHT	28	1	0	1	62	454.012758401	453.020098555	454.012758401
459.506320624	2	62	CONTROL	1	0.697424566000336	1	LEFT	5	1	1	0	0	459.522869662	459.506320624	459.522869662
465.016405402	4	63	TASK	2	1.39550381200024	1	LEFT	5	1	0	1	102	466.009298019	465.016405402	466.009298019
473.521529842	4	64	TASK	2	2.62197409999999	2	RIGHT	28	1	0	1	82	474.514336126	473.521529842	474.514336126
