onset	duration	trial_number	trial_type	reaction_time	response_coded	response_str	pairno_rec	enc_codes_during_rec	onset_noTriggerAdjust
0.0787761527230941	3	1	CORRECTLY	2.35321294227697	5	SURE_CORRECT	3	6	0.0787761527230941
4.52195324272316	3	2	INCORRECTLY	1.84645499427688	21	SURE_INCORRECT	55	0	4.52195324272316
13.0105428377233	2	3	CONTROL	2.47679704127677	5	n/a	1000	0	13.0105428377233
16.0611278878023	3	4	CORRECTLY	n/a	n/a	n/a	12	0	16.0611278878023
21.0182778720032	3	5	CORRECTLY	2.24470421299657	28	MAYBE_CORRECT	8	15	21.0182778720032
25.0636185810031	2	6	CONTROL	0.794974175996686	5	n/a	1000	0	25.0636185810031
29.0093814131637	3	7	INCORRECTLY	3.74132481283596	21	SURE_INCORRECT	59	0	29.0093814131637
36.0224189347232	3	8	CORRECTLY	2.46332762627662	10	MAYBE_INCORRECT	7	13	36.0224189347232
40.5153740254436	3	9	INCORRECTLY	2.0869209935563	21	SURE_INCORRECT	68	0	40.5153740254436
47.0144146247235	3	10	INCORRECTLY	2.61697316927621	21	SURE_INCORRECT	64	0	47.0144146247235
51.0597817904436	3	11	CORRECTLY	2.1358248335564	21	SURE_INCORRECT	6	12	51.0597817904436
56.0170381129619	2	12	CONTROL	1.57106411603809	5	n/a	1000	0	56.0170381129619
61.5211871891638	3	13	INCORRECTLY	2.72880252583627	10	MAYBE_INCORRECT	78	0	61.5211871891638
65.5665117751637	3	14	CORRECTLY	2.07213120183633	5	SURE_CORRECT	16	31	65.5665117751637
69.5787355414436	3	15	CORRECTLY	2.65817240655633	5	SURE_CORRECT	14	0	69.5787355414436
75.0166540934433	3	16	CORRECTLY	1.5356270875568	5	SURE_CORRECT	1	3	75.0166540934433
79.0786267887233	3	17	CORRECTLY	3.21290274227658	5	SURE_CORRECT	5	11	79.0786267887233
83.5052819769621	3	18	INCORRECTLY	2.38823689903802	21	SURE_INCORRECT	51	0	83.5052819769621
90.0208369467232	3	19	INCORRECTLY	2.91583193027691	28	MAYBE_CORRECT	47	0	90.0208369467232
94.0662657570033	3	20	INCORRECTLY	2.22362775999682	21	SURE_INCORRECT	66	0	94.0662657570033
99.0069161977613	3	21	CORRECTLY	2.29540289123861	5	SURE_CORRECT	10	20	99.0069161977613
103.068751053723	3	22	INCORRECTLY	2.0021390822767	21	SURE_INCORRECT	48	0	103.068751053723
107.064310844723	3	23	INCORRECTLY	2.4255277612765	21	SURE_INCORRECT	52	0	107.064310844723
115.022271237164	3	24	INCORRECTLY	2.06371578683638	28	MAYBE_CORRECT	45	0	115.022271237164
119.515365352242	3	25	CORRECTLY	2.34072096375803	28	MAYBE_CORRECT	9	18	119.515365352242
125.516995176761	3	26	INCORRECTLY	2.46767006423897	10	MAYBE_INCORRECT	42	0	125.516995176761
131.021301838724	3	27	INCORRECTLY	2.66992868227635	21	SURE_INCORRECT	80	0	131.021301838724
137.022915339723	3	28	CORRECTLY	2.44750724127698	5	SURE_CORRECT	2	5	137.022915339723
142.013308541723	2	29	CONTROL	1.62737227227672	10	n/a	1000	0	142.013308541723
145.063921769082	3	30	INCORRECTLY	3.2234139849179	5	SURE_CORRECT	56	0	145.063921769082
150.518385268444	3	31	INCORRECTLY	2.77548208755616	10	MAYBE_INCORRECT	43	0	150.518385268444
155.011337545443	3	32	INCORRECTLY	2.71893626055635	28	MAYBE_CORRECT	58	0	155.011337545443
159.520920189723	3	33	CORRECTLY	2.80261682127684	5	SURE_CORRECT	4	9	159.520920189723
167.014665449164	3	34	CORRECTLY	2.66049869683638	28	MAYBE_CORRECT	13	0	167.014665449164
173.513702874443	3	35	CORRECTLY	2.43975711755638	21	SURE_INCORRECT	11	21	173.513702874443
178.520773436761	3	36	CORRECTLY	3.72386831223912	21	SURE_INCORRECT	15	30	178.520773436761
182.565984029443	3	37	INCORRECTLY	1.95386158855672	21	SURE_INCORRECT	46	0	182.565984029443
188.517885064443	2	38	CONTROL	1.22937317855667	28	n/a	1000	0	188.517885064443
193.508239065443	2	39	CONTROL	1.14791088755646	28	n/a	1000	0	193.508239065443
198.017872954761	3	40	INCORRECTLY	3.16155974423873	21	SURE_INCORRECT	62	0	198.017872954761
203.008182640682	2	41	CONTROL	1.41589647031788	5	n/a	1000	0	203.008182640682
207.517621820164	2	42	CONTROL	1.58003076983641	21	n/a	1000	0	207.517621820164
211.015867948723	2	43	CONTROL	1.98990076227665	28	n/a	1000	0	211.015867948723
218.526290983723	3	44	INCORRECTLY	2.8742085652766	21	SURE_INCORRECT	49	0	218.526290983723
224.014020971003	3	45	CORRECTLY	2.99611095899672	10	MAYBE_INCORRECT	27	47	224.014020971003
229.518325990723	3	46	CORRECTLY	2.23490684327635	5	SURE_CORRECT	30	53	229.518325990723
235.022550003723	3	47	INCORRECTLY	2.07196387527665	21	SURE_INCORRECT	75	0	235.022550003723
244.522436142723	3	48	CORRECTLY	2.23661271727678	5	SURE_CORRECT	35	58	244.522436142723
252.016264900723	3	49	CORRECTLY	1.90555248727651	10	MAYBE_INCORRECT	32	55	252.016264900723
256.078172921522	2	50	CONTROL	1.88107252747795	21	n/a	1000	0	256.078172921522
259.078948185444	3	51	INCORRECTLY	2.22351342555658	10	MAYBE_INCORRECT	70	0	259.078948185444
267.020378400724	2	52	CONTROL	1.22692656227628	21	n/a	1000	0	267.020378400724
272.524701342444	3	53	INCORRECTLY	3.45252382055605	28	MAYBE_CORRECT	79	0	272.524701342444
277.515095170723	3	54	INCORRECTLY	3.45356442827642	21	SURE_INCORRECT	65	0	277.515095170723
282.024646006761	2	55	CONTROL	1.63522020523897	5	n/a	1000	0	282.024646006761
285.075134702443	3	56	INCORRECTLY	2.10584270355639	28	MAYBE_CORRECT	53	0	285.075134702443
292.021879741444	3	57	INCORRECTLY	1.80014409755631	21	SURE_INCORRECT	76	0	292.021879741444
296.067238979242	2	58	CONTROL	1.14583458375773	5	n/a	1000	0	296.067238979242
300.013021844723	3	59	INCORRECTLY	2.15187785227636	21	SURE_INCORRECT	41	0	300.013021844723
305.517269045164	2	60	CONTROL	1.42918452883623	10	n/a	1000	0	305.517269045164
310.026827419444	3	61	INCORRECTLY	2.53441855655637	5	SURE_CORRECT	63	0	310.026827419444
318.018067843723	3	62	CORRECTLY	2.20242731027656	5	SURE_CORRECT	38	61	318.018067843723
325.014450295723	3	63	CORRECTLY	1.8282234602766	10	MAYBE_INCORRECT	24	41	325.014450295723
330.021379620723	3	64	CORRECTLY	2.26066012227693	10	MAYBE_INCORRECT	21	37	330.021379620723
335.525740890003	3	65	INCORRECTLY	3.23124151599677	10	MAYBE_INCORRECT	67	0	335.525740890003
341.510856448761	3	66	CORRECTLY	3.56477349523902	28	MAYBE_CORRECT	34	57	341.510856448761
346.517734781443	3	67	INCORRECTLY	2.4890398905568	21	SURE_INCORRECT	60	0	346.517734781443
351.027189535163	2	68	CONTROL	1.87269429883645	21	n/a	1000	0	351.027189535163
355.022808752443	3	69	CORRECTLY	2.04991202155679	5	SURE_CORRECT	22	38	355.022808752443
362.516642115444	3	70	CORRECTLY	2.03698149055617	5	SURE_CORRECT	25	44	362.516642115444
367.009597577724	3	71	INCORRECTLY	2.38789871227618	21	SURE_INCORRECT	71	0	367.009597577724
371.071502951444	3	72	INCORRECTLY	1.54256438755647	21	SURE_INCORRECT	57	0	371.071502951444
375.514721519443	3	73	CORRECTLY	1.7173222135566	21	SURE_INCORRECT	19	35	375.514721519443
381.019034070443	2	74	CONTROL	1.30831991255627	28	n/a	1000	0	381.019034070443
386.009394161761	3	75	INCORRECTLY	2.04560632723906	10	MAYBE_INCORRECT	74	0	386.009394161761
391.513685533723	2	76	CONTROL	1.53102124927682	10	n/a	1000	0	391.513685533723
395.509240644443	3	77	CORRECTLY	2.01133618255653	21	SURE_INCORRECT	17	32	395.509240644443
401.013495469444	2	78	CONTROL	1.48335963755653	5	n/a	1000	0	401.013495469444
405.009135230443	3	79	INCORRECTLY	2.00289019655656	5	SURE_CORRECT	77	0	405.009135230443
409.518685457723	2	80	CONTROL	1.17954243327677	10	n/a	1000	0	409.518685457723
415.520310060723	3	81	INCORRECTLY	1.77944817127673	21	SURE_INCORRECT	44	0	415.520310060723
421.521959533723	3	82	CORRECTLY	2.1783007862764	5	SURE_CORRECT	40	64	421.521959533723
426.014966598444	3	83	CORRECTLY	2.08290734455613	28	MAYBE_CORRECT	28	48	426.014966598444
430.076847341444	3	84	INCORRECTLY	1.52120351855638	21	SURE_INCORRECT	50	0	430.076847341444
437.023548663723	3	85	INCORRECTLY	1.65898031927645	21	SURE_INCORRECT	72	0	437.023548663723
443.522592822444	3	86	INCORRECTLY	2.98332280155637	10	MAYBE_INCORRECT	69	0	443.522592822444
447.567971142802	3	87	CORRECTLY	2.11568952019798	21	SURE_INCORRECT	18	34	447.567971142802
452.525142754761	2	88	CONTROL	1.21402501623879	10	n/a	1000	0	452.525142754761
455.575670865443	2	89	CONTROL	1.3774851805565	28	n/a	1000	0	455.575670865443
462.008413651443	3	90	INCORRECTLY	2.30764754255642	5	SURE_CORRECT	61	0	462.008413651443
466.070344360443	2	91	CONTROL	1.54483539955663	21	n/a	1000	0	466.070344360443
470.513538201444	3	92	INCORRECTLY	2.29554239755635	21	SURE_INCORRECT	73	0	470.513538201444
474.575468650723	3	93	CORRECTLY	2.91390891527635	10	MAYBE_INCORRECT	29	52	474.575468650723
479.516123106761	3	94	CORRECTLY	1.5416335512391	28	MAYBE_CORRECT	20	36	479.516123106761
484.506427189362	2	95	CONTROL	1.25007796263799	10	n/a	1000	0	484.506427189362
489.015889982723	3	96	CORRECTLY	2.09467098027653	5	SURE_CORRECT	31	54	489.015889982723
493.077855409444	3	97	CORRECTLY	2.11794614355631	10	MAYBE_INCORRECT	23	40	493.077855409444
498.018378426444	3	98	CORRECTLY	2.42056949955622	5	SURE_CORRECT	37	60	498.018378426444
502.511396018163	3	99	CORRECTLY	2.72432335583653	10	MAYBE_INCORRECT	36	59	502.511396018163
506.573340001723	2	100	CONTROL	1.27371770827631	10	n/a	1000	0	506.573340001723
510.021750775723	3	101	INCORRECTLY	0.00857103527641812	10	MAYBE_INCORRECT	54	0	510.021750775723
514.067049576723	3	102	CORRECTLY	0.0087196692766156	10	MAYBE_INCORRECT	39	63	514.067049576723
518.062675917723	3	103	CORRECTLY	0.00867005127656739	10	MAYBE_INCORRECT	33	56	518.062675917723
522.074876960443	3	104	CORRECTLY	0.00868258855643944	10	MAYBE_INCORRECT	26	45	522.074876960443
