onset	duration	trial_number	trial_type	reaction_time	response_coded	response_str	pairno_rec	enc_codes_during_rec	onset_noTriggerAdjust
0.0787497508458728	3	1	CORRECTLY	3.24329602815396	28	MAYBE_CORRECT	3	6	0.0787497508458728
4.52193386784575	3	2	INCORRECTLY	3.27346054715417	5	SURE_CORRECT	55	0	4.52193386784575
13.0270868368457	2	3	CONTROL	2.2402388961541	5	n/a	1000	0	13.0270868368457
16.0776096159107	3	4	CORRECTLY	2.73033998608935	28	MAYBE_CORRECT	12	0	16.0776096159107
21.0182808043783	3	5	CORRECTLY	2.5090542816215	10	MAYBE_INCORRECT	8	15	21.0182808043783
25.0636142858457	2	6	CONTROL	2.09919819915422	28	n/a	1000	0	25.0636142858457
29.0093709103785	3	7	INCORRECTLY	3.35445679862141	5	SURE_CORRECT	59	0	29.0093709103785
36.0058126093782	3	8	CORRECTLY	3.20862262262199	28	MAYBE_CORRECT	7	13	36.0058126093782
40.5154077023781	3	9	INCORRECTLY	2.85803145262207	5	SURE_CORRECT	68	0	40.5154077023781
47.0144196913784	3	10	INCORRECTLY	2.41146171062155	21	SURE_INCORRECT	64	0	47.0144196913784
51.0597627269881	3	11	CORRECTLY	3.43066167901179	10	MAYBE_INCORRECT	6	12	51.0597627269881
56.0169297447806	2	12	CONTROL	1.94199877621941	5	n/a	1000	0	56.0169297447806
61.5212813168459	3	13	INCORRECTLY	2.18731763015421	28	MAYBE_CORRECT	78	0	61.5212813168459
65.5665361829106	3	14	CORRECTLY	n/a	n/a	n/a	16	31	65.5665361829106
69.5620980758458	3	15	CORRECTLY	0.138012628154229	5	SURE_CORRECT	14	0	69.5620980758458
75.0167448542602	3	16	CORRECTLY	2.08406923273969	5	SURE_CORRECT	1	3	75.0167448542602
79.0786081123128	3	17	CORRECTLY	2.02474020768705	28	MAYBE_CORRECT	5	11	79.0786081123128
83.521841905846	3	18	INCORRECTLY	3.36124011915399	5	SURE_CORRECT	51	0	83.521841905846
90.0208318849109	3	19	INCORRECTLY	1.87262805808905	10	MAYBE_INCORRECT	47	0	90.0208318849109
94.0662380425206	3	20	INCORRECTLY	2.19806025747948	28	MAYBE_CORRECT	66	0	94.0662380425206
99.0233591693782	3	21	CORRECTLY	0.874201692621682	28	MAYBE_CORRECT	10	20	99.0233591693782
103.068659585378	3	22	INCORRECTLY	2.44554012162189	10	MAYBE_INCORRECT	48	0	103.068659585378
107.064250688378	3	23	INCORRECTLY	2.13057320962162	5	SURE_CORRECT	52	0	107.064250688378
115.022325061378	3	24	INCORRECTLY	2.60882935062182	28	MAYBE_CORRECT	45	0	115.022325061378
119.515291299911	3	25	CORRECTLY	1.96387683908961	28	MAYBE_CORRECT	9	18	119.515291299911
125.51699402526	3	26	INCORRECTLY	3.32108818573943	5	SURE_CORRECT	42	0	125.51699402526
131.021190904378	3	27	INCORRECTLY	n/a	n/a	n/a	80	0	131.021190904378
137.022864317911	3	28	CORRECTLY	1.09888006808933	5	SURE_CORRECT	2	5	137.022864317911
142.013231218378	2	29	CONTROL	2.38594121462165	28	n/a	1000	0	142.013231218378
145.063778962378	3	30	INCORRECTLY	1.37972072562161	10	MAYBE_INCORRECT	56	0	145.063778962378
150.518363497846	3	31	INCORRECTLY	1.87167479415439	21	SURE_INCORRECT	43	0	150.518363497846
155.011344937378	3	32	INCORRECTLY	2.34147566262163	28	MAYBE_CORRECT	58	0	155.011344937378
159.520857082378	3	33	CORRECTLY	2.40045736762158	5	SURE_CORRECT	4	9	159.520857082378
167.014678335378	3	34	CORRECTLY	2.20116830962161	5	SURE_CORRECT	13	0	167.014678335378
173.513704820378	3	35	CORRECTLY	1.69557383062192	21	SURE_INCORRECT	11	21	173.513704820378
178.520665659846	3	36	CORRECTLY	1.59265664015447	5	SURE_CORRECT	15	30	178.520665659846
182.565917819911	3	37	INCORRECTLY	1.66098977108913	5	SURE_CORRECT	46	0	182.565917819911
188.517945316586	2	38	CONTROL	2.08240815941417	28	n/a	1000	0	188.517945316586
193.508275697378	2	39	CONTROL	1.34159031262152	28	n/a	1000	0	193.508275697378
198.017744609846	3	40	INCORRECTLY	2.4699084581539	5	SURE_CORRECT	62	0	198.017744609846
203.024663131846	2	41	CONTROL	n/a	n/a	n/a	1000	0	203.024663131846
207.517677285378	2	42	CONTROL	2.14163826462163	21	n/a	1000	0	207.517677285378
211.015897334378	2	43	CONTROL	1.56688839462186	28	n/a	1000	0	211.015897334378
218.509736099846	3	44	INCORRECTLY	2.83180540615422	10	MAYBE_INCORRECT	49	0	218.509736099846
224.013994085053	3	45	CORRECTLY	2.84141185494718	28	MAYBE_CORRECT	27	47	224.013994085053
229.518213174911	3	46	CORRECTLY	2.22394686108919	28	MAYBE_CORRECT	30	53	229.518213174911
235.022552458378	3	47	INCORRECTLY	2.3535349796216	5	SURE_CORRECT	75	0	235.022552458378
244.522428782378	3	48	CORRECTLY	2.71551771362147	28	MAYBE_CORRECT	35	58	244.522428782378
252.016251122911	3	49	CORRECTLY	1.83632548708829	5	SURE_CORRECT	32	55	252.016251122911
256.078175977845	2	50	CONTROL	2.22412593315494	10	n/a	1000	0	256.078175977845
259.078933484378	3	51	INCORRECTLY	1.46035968762226	28	MAYBE_CORRECT	70	0	259.078933484378
267.020386450378	2	52	CONTROL	2.41081184362247	21	n/a	1000	0	267.020386450378
272.508080977379	3	53	INCORRECTLY	2.72466307962168	21	SURE_INCORRECT	79	0	272.508080977379
277.515034907378	3	54	INCORRECTLY	2.5724933076217	28	MAYBE_CORRECT	65	0	277.515034907378
282.008037400313	2	55	CONTROL	2.49187657068705	5	n/a	1000	0	282.008037400313
285.075175671378	3	56	INCORRECTLY	1.89523792362161	28	MAYBE_CORRECT	53	0	285.075175671378
292.021820768911	3	57	INCORRECTLY	2.17653206308933	5	SURE_CORRECT	76	0	292.021820768911
296.067201289845	2	58	CONTROL	n/a	n/a	n/a	1000	0	296.067201289845
300.013059644378	3	59	INCORRECTLY	1.48556309162177	10	MAYBE_INCORRECT	41	0	300.013059644378
305.517349567378	2	60	CONTROL	2.46716685662159	10	n/a	1000	0	305.517349567378
310.026825821845	3	61	INCORRECTLY	1.75383805315505	28	MAYBE_CORRECT	63	0	310.026825821845
318.018076569846	3	62	CORRECTLY	2.1764071281541	5	SURE_CORRECT	38	61	318.018076569846
325.014499567845	3	63	CORRECTLY	1.96406843015484	28	MAYBE_CORRECT	24	41	325.014499567845
330.021330040378	3	64	CORRECTLY	1.92746350462221	10	MAYBE_INCORRECT	21	37	330.021330040378
335.525675926845	3	65	INCORRECTLY	2.59485301315453	28	MAYBE_CORRECT	67	0	335.525675926845
341.510855136521	3	66	CORRECTLY	2.20808649147966	5	SURE_CORRECT	34	57	341.510855136521
346.517728133845	3	67	INCORRECTLY	1.71762096615475	5	SURE_CORRECT	60	0	346.517728133845
351.010594352378	2	68	CONTROL	0.00872859762148437	5	n/a	1000	0	351.010594352378
355.022838726314	3	69	CORRECTLY	0.00852852968637308	5	SURE_CORRECT	22	38	355.022838726314
362.516621676379	3	70	CORRECTLY	1.5210520526216	21	SURE_INCORRECT	25	44	362.516621676379
367.009531518378	3	71	INCORRECTLY	2.87388114562145	28	MAYBE_CORRECT	71	0	367.009531518378
371.071426866911	3	72	INCORRECTLY	3.19749448208859	21	SURE_INCORRECT	57	0	371.071426866911
375.514756014846	3	73	CORRECTLY	2.24554717415413	28	MAYBE_CORRECT	19	35	375.514756014846
381.018947105379	2	74	CONTROL	1.81475967662118	28	n/a	1000	0	381.018947105379
386.025945377378	3	75	INCORRECTLY	2.00454512862143	5	SURE_CORRECT	74	0	386.025945377378
391.513696633987	2	76	CONTROL	2.18520331601303	10	n/a	1000	0	391.513696633987
395.525772582378	3	77	CORRECTLY	2.4335878496222	21	SURE_INCORRECT	17	32	395.525772582378
401.013500585379	2	78	CONTROL	1.54383161462101	5	n/a	1000	0	401.013500585379
405.009047125911	3	79	INCORRECTLY	1.81370874908862	28	MAYBE_CORRECT	77	0	405.009047125911
409.518595035378	2	80	CONTROL	2.17453289962123	10	n/a	1000	0	409.518595035378
415.520354644845	3	81	INCORRECTLY	1.99916760115502	10	MAYBE_INCORRECT	44	0	415.520354644845
421.521963819378	3	82	CORRECTLY	1.75506458262225	10	MAYBE_INCORRECT	40	64	421.521963819378
426.01503195852	3	83	CORRECTLY	2.13007171247955	28	MAYBE_CORRECT	28	48	426.01503195852
430.076826320912	3	84	INCORRECTLY	2.16505275208874	5	SURE_CORRECT	50	0	430.076826320912
437.023589751846	3	85	INCORRECTLY	2.44548812015455	28	MAYBE_CORRECT	72	0	437.023589751846
443.522627354378	3	86	INCORRECTLY	1.8704145046222	21	SURE_INCORRECT	69	0	443.522627354378
447.567871120845	3	87	CORRECTLY	1.72006283315477	21	SURE_INCORRECT	18	34	447.567871120845
452.508577092054	2	88	CONTROL	1.70679694094633	10	n/a	1000	0	452.508577092054
455.575714248845	2	89	CONTROL	1.45216668315516	28	n/a	1000	0	455.575714248845
462.008439908585	3	90	INCORRECTLY	2.83266454541535	28	MAYBE_CORRECT	61	0	462.008439908585
466.070348874521	2	91	CONTROL	1.88336591047937	21	n/a	1000	0	466.070348874521
470.513548105313	3	92	INCORRECTLY	2.05709386668696	10	MAYBE_INCORRECT	73	0	470.513548105313
474.558923301988	3	93	CORRECTLY	2.11544434901225	28	MAYBE_CORRECT	29	52	474.558923301988
479.516065742378	3	94	CORRECTLY	3.19380162162179	5	SURE_CORRECT	20	36	479.516065742378
484.522979676846	2	95	CONTROL	1.71979486515374	10	n/a	1000	0	484.522979676846
489.015863667911	3	96	CORRECTLY	1.73173953508922	28	MAYBE_CORRECT	31	54	489.015863667911
493.077854463846	3	97	CORRECTLY	2.29298358615415	10	MAYBE_INCORRECT	23	40	493.077854463846
498.018458989378	3	98	CORRECTLY	1.76519824962179	10	MAYBE_INCORRECT	37	60	498.018458989378
502.511417348845	3	99	CORRECTLY	1.77833220815501	5	SURE_CORRECT	36	59	502.511417348845
506.573277522846	2	100	CONTROL	1.46724548015391	10	n/a	1000	0	506.573277522846
510.005194106781	3	101	INCORRECTLY	2.66941975921873	10	MAYBE_INCORRECT	54	0	510.005194106781
514.067054439846	3	102	CORRECTLY	n/a	n/a	n/a	39	63	514.067054439846
518.062687881379	3	103	CORRECTLY	1.75471696962086	10	MAYBE_INCORRECT	33	56	518.062687881379
522.074859995314	3	104	CORRECTLY	2.49025291668659	5	SURE_CORRECT	26	45	522.074859995314
