onset	duration	trial_number	trial_type	trial_type_coded	reaction_time	expected_response_coded	response	response_coded	accuracy	accuracy_scrambled	accuracy_task	rec_codes_during_enc	onset_probe	onset_noTriggerAdjust	onset_probe_noTriggerAdjust
0.0157772949996797	2	1	CONTROL	1	n/a	1	n/a	n/a	0	0	0	0	0.0488711489997513	0.0157772949996797	0.0488711489997513
4.51652710899998	2	2	CONTROL	1	0.859799159999966	2	RIGHT	28	1	1	0	0	4.53312136400018	4.51652710899998	4.53312136400018
11.5159663929999	4	3	TASK	2	0.90127338900038	1	LEFT	5	1	0	1	16	12.5086803389995	11.5159663929999	12.5086803389995
19.5080648510002	2	4	CONTROL	1	0.803260288999809	1	LEFT	5	1	1	0	0	19.52457392	19.5080648510002	19.52457392
22.03975188	4	5	TASK	2	0.897073137000007	2	RIGHT	28	1	0	1	28	23.015994507	22.03975188	23.015994507
38.5204073650002	4	6	TASK	2	0.782227223000518	1	LEFT	5	1	0	1	1	39.5132245879995	38.5204073650002	39.5132245879995
49.507536481	2	7	CONTROL	1	0.724069470000359	2	RIGHT	28	1	1	0	0	49.5240990739994	49.507536481	49.5240990739994
56.506881366	2	8	CONTROL	1	0.663485567999487	2	RIGHT	28	1	1	0	0	56.523437029	56.506881366	56.523437029
66.0213640439997	4	9	TASK	2	0.58465446900027	2	RIGHT	28	1	0	1	33	67.0141588079996	66.0213640439997	67.0141588079996
70.5220546559995	2	10	CONTROL	1	0.576004139000361	2	RIGHT	28	1	1	0	0	70.5386450199994	70.5220546559995	70.5386450199994
76.0156623140001	4	11	TASK	2	0.553370182000435	2	RIGHT	28	1	0	1	17	77.0084415599995	76.0156623140001	77.0084415599995
81.5092335680001	4	12	TASK	2	0.640165457999501	2	RIGHT	28	1	0	1	11	82.501999649	81.5092335680001	82.501999649
92.5129045429994	4	13	TASK	2	0.861311146000844	1	LEFT	5	1	0	1	8	93.5057044609994	92.5129045429994	93.5057044609994
98.0229971259996	2	14	CONTROL	1	1.01333315500051	1	LEFT	5	1	1	0	0	98.0394902399994	98.0229971259996	98.0394902399994
104.509376092999	4	15	TASK	2	0.659265792000042	1	LEFT	5	1	0	1	5	105.502211440999	104.509376092999	105.502211440999
109.010149695	2	16	CONTROL	1	0.680375846999596	1	LEFT	5	1	1	0	0	109.026694678	109.010149695	109.026694678
112.021683133999	2	17	CONTROL	1	0.722887790000641	2	RIGHT	28	1	1	0	0	112.038227734	112.021683133999	112.038227734
118.508047775	4	18	TASK	2	0.815460216999782	2	RIGHT	28	1	0	1	25	119.500841936	118.508047775	119.500841936
125.010996798	2	19	CONTROL	1	0.755151411000043	1	LEFT	5	1	1	0	0	125.027536552	125.010996798	125.027536552
129.015348256999	4	20	TASK	2	0.680076642999666	1	LEFT	5	1	0	1	21	130.008105719	129.015348256999	130.008105719
135.005303475	4	21	TASK	2	0.628047289000278	2	RIGHT	28	1	0	1	35	136.014648247	135.005303475	136.014648247
151.022700187999	4	22	TASK	2	0.71831280799961	1	LEFT	5	1	0	1	4	152.015486044	151.022700187999	152.015486044
155.523426889	4	23	TASK	2	0.64373002100001	2	RIGHT	28	1	0	1	34	156.516199483	155.523426889	156.516199483
161.017019389	2	24	CONTROL	1	1.13030627799981	2	RIGHT	28	1	1	0	0	161.033536661	161.017019389	161.033536661
165.021311332	2	25	CONTROL	1	0.625281304999589	1	LEFT	5	1	1	0	0	165.037920091	165.021311332	165.037920091
174.519309126999	2	26	CONTROL	1	0.627223184000286	2	RIGHT	28	1	1	0	0	174.535864551	174.519309126999	174.535864551
179.516430378	2	27	CONTROL	1	0.836914063000222	2	RIGHT	28	1	1	0	0	179.533029716999	179.516430378	179.533029716999
182.048027522	4	28	TASK	2	0.548861188999581	2	RIGHT	28	1	0	1	15	183.007845475	182.048027522	183.007845475
189.014319535	2	29	CONTROL	1	0.637971262000065	2	RIGHT	28	1	1	0	0	189.030861513	189.014319535	189.030861513
193.018681366	4	30	TASK	2	0.967319626999597	2	RIGHT	28	1	0	1	36	194.011501707	193.018681366	194.011501707
202.02012656	4	31	TASK	2	0.792611646999831	2	RIGHT	28	1	0	1	14	203.013009626	202.02012656	203.013009626
209.515878093	4	32	TASK	2	0.697996045999389	1	LEFT	5	1	0	1	77	210.508721563	209.515878093	210.508721563
216.002262266	2	33	CONTROL	1	1.44680980099929	2	RIGHT	28	1	1	0	0	216.018839536	216.002262266	216.018839536
220.519587977999	4	34	TASK	2	0.739070091999565	1	LEFT	5	1	0	1	87	221.512521675	220.519587977999	221.512521675
226.01319322	4	35	TASK	2	0.806423674000143	1	LEFT	5	1	0	1	73	227.00599972	226.01319322	227.00599972
240.011837712	4	36	TASK	2	1.08304741200027	1	LEFT	5	1	0	1	94	241.00458437	240.011837712	241.00458437
254.010451272	4	37	TASK	2	1.39547970500007	1	LEFT	5	1	0	1	64	255.003257607	254.010451272	255.003257607
261.52275207	4	38	TASK	2	1.00416502200005	2	RIGHT	28	1	0	1	69	262.515567607	261.52275207	262.515567607
280.022192144	2	39	CONTROL	1	0.975441800999761	1	LEFT	5	1	1	0	0	280.038714357	280.022192144	280.038714357
283.017219726	4	40	TASK	2	1.52685688400015	2	RIGHT	28	1	0	1	97	284.01001251	283.017219726	284.01001251
292.018677891	4	41	TASK	2	0.908280317999925	1	LEFT	5	1	0	1	63	293.011471846999	292.018677891	293.011471846999
297.512235405999	2	42	CONTROL	1	0.920325293999667	1	LEFT	5	1	1	0	0	297.528803256	297.512235405999	297.528803256
305.520960102	2	43	CONTROL	1	0.645336923999821	1	LEFT	5	1	1	0	0	305.53743277	305.520960102	305.53743277
316.524625661999	4	44	TASK	2	0.676656132000062	1	LEFT	5	1	0	1	70	317.517451373	316.524625661999	317.517451373
324.003759059	4	45	TASK	2	0.931399028000669	1	LEFT	5	1	0	1	104	325.013180309999	324.003759059	325.013180309999
331.01964963	2	46	CONTROL	1	0.805689650000204	1	LEFT	5	1	1	0	0	331.036251306999	331.01964963	331.036251306999
336.513245288	4	47	TASK	2	1.14073010300035	2	RIGHT	28	1	0	1	45	337.506093466	336.513245288	337.506093466
347.02048948	4	48	TASK	2	1.50748023399956	2	RIGHT	28	1	0	1	83	348.013311451	347.02048948	348.013311451
358.007715496999	2	49	CONTROL	1	0.945050732000709	1	LEFT	5	1	1	0	0	358.024213412999	358.007715496999	358.024213412999
363.021353155999	2	50	CONTROL	1	0.905187594999916	2	RIGHT	28	1	1	0	0	363.037905675	363.021353155999	363.037905675
370.517119479	2	51	CONTROL	1	1.60198132599999	2	RIGHT	28	1	1	0	0	370.533600352	370.517119479	370.533600352
376.507094634	4	52	TASK	2	1.74316496600022	2	RIGHT	28	1	0	1	93	377.516428012	376.507094634	377.516428012
383.506436453	4	53	TASK	2	1.70124491800016	1	LEFT	5	1	0	1	46	384.515768619	383.506436453	384.515768619
390.505798145	4	54	TASK	2	1.55903441499959	2	RIGHT	28	1	0	1	96	391.51513048	390.505798145	391.51513048
405.017373693	4	55	TASK	2	1.06646894900041	2	RIGHT	28	1	0	1	49	406.010132107	405.017373693	406.010132107
412.016637641	4	56	TASK	2	1.514039873	2	RIGHT	28	1	0	1	103	413.009474701999	412.016637641	413.009474701999
418.50308186	4	57	TASK	2	1.35191345800013	2	RIGHT	28	1	0	1	66	419.512384737	418.50308186	419.512384737
429.506740102	4	58	TASK	2	1.33584363000045	2	RIGHT	28	1	0	1	48	430.516054405	429.506740102	430.516054405
443.521961744	4	59	TASK	2	1.17238678299964	2	RIGHT	28	1	0	1	99	444.514786942	443.521961744	444.514786942
448.022709082	4	60	TASK	2	1.37730196400025	1	LEFT	5	1	0	1	98	449.015573795	448.022709082	449.015573795
453.019885244999	4	61	TASK	2	1.5702633259998	2	RIGHT	28	1	0	1	62	454.012641453	453.019885244999	454.012641453
459.522783916	2	62	CONTROL	1	1.4411698949998	1	LEFT	5	1	1	0	0	459.539311213	459.522783916	459.539311213
465.016412612	4	63	TASK	2	1.2327504040004	1	LEFT	5	1	0	1	102	466.009166250999	465.016412612	466.009166250999
473.521464079	4	64	TASK	2	0.894524043999809	2	RIGHT	28	1	0	1	82	474.51432262	473.521464079	474.51432262
