onset	duration	trial_number	trial_type	reaction_time	response_coded	response_str	pairno_rec	enc_codes_during_rec	onset_noTriggerAdjust
0.0787424908421599	3	1	CORRECTLY	3.25897298515792	28	MAYBE_CORRECT	3	6	0.0787424908421599
4.52187121031602	3	2	INCORRECTLY	3.02372769768408	21	SURE_INCORRECT	55	0	4.52187121031602
13.027056723316	2	3	CONTROL	2.0459214256839	5	n/a	1000	0	13.027056723316
16.0776176481932	3	4	CORRECTLY	2.17016491880713	21	SURE_INCORRECT	12	0	16.0776176481932
21.0182489008598	3	5	CORRECTLY	2.60311365214011	5	SURE_CORRECT	8	15	21.0182489008598
25.0635459811929	2	6	CONTROL	2.55145490680707	28	n/a	1000	0	25.0635459811929
29.0093208731932	3	7	INCORRECTLY	3.13830334880686	21	SURE_INCORRECT	59	0	29.0093208731932
36.0058525132104	3	8	CORRECTLY	2.73324422978976	21	SURE_INCORRECT	7	13	36.0058525132104
40.5153973339825	3	9	INCORRECTLY	2.28397434501767	5	SURE_CORRECT	68	0	40.5153973339825
47.0143673603161	3	10	INCORRECTLY	3.34562087968425	10	MAYBE_INCORRECT	64	0	47.0143673603161
51.0763262181931	3	11	CORRECTLY	n/a	n/a	n/a	6	12	51.0763262181931
56.0168295544381	2	12	CONTROL	1.58371221156222	5	n/a	1000	0	56.0168295544381
61.5211760483157	3	13	INCORRECTLY	1.99247674368462	5	SURE_CORRECT	78	0	61.5211760483157
65.5665019570874	3	14	CORRECTLY	1.8769680259129	5	SURE_CORRECT	16	31	65.5665019570874
69.578697082316	3	15	CORRECTLY	2.65309399968419	5	SURE_CORRECT	14	0	69.578697082316
75.0166433533159	3	16	CORRECTLY	1.79569146868425	5	SURE_CORRECT	1	3	75.0166433533159
79.0785685471928	3	17	CORRECTLY	1.87676381080746	5	SURE_CORRECT	5	11	79.0785685471928
83.5217840991932	3	18	INCORRECTLY	2.49745311180686	5	SURE_CORRECT	51	0	83.5217840991932
90.0207730583161	3	19	INCORRECTLY	3.56043959068393	28	MAYBE_CORRECT	47	0	90.0207730583161
94.0661668830703	3	20	INCORRECTLY	2.04512370992961	28	MAYBE_CORRECT	66	0	94.0661668830703
99.0233209363159	3	21	CORRECTLY	1.99488211568405	5	SURE_CORRECT	10	20	99.0233209363159
103.06874051372	3	22	INCORRECTLY	2.20302550028055	5	SURE_CORRECT	48	0	103.06874051372
107.064181680316	3	23	INCORRECTLY	2.08645506668427	21	SURE_INCORRECT	52	0	107.064181680316
115.00573641521	3	24	INCORRECTLY	2.6815519587899	28	MAYBE_CORRECT	45	0	115.00573641521
119.515348685983	3	25	CORRECTLY	3.10700289301758	5	SURE_CORRECT	9	18	119.515348685983
125.516851237193	3	26	INCORRECTLY	1.94543388780721	21	SURE_INCORRECT	42	0	125.516851237193
131.021135478438	3	27	INCORRECTLY	1.80278872156168	21	SURE_INCORRECT	80	0	131.021135478438
137.022878032193	3	28	CORRECTLY	1.56806739380681	5	SURE_CORRECT	2	5	137.022878032193
142.013159164316	2	29	CONTROL	1.80383453468448	10	n/a	1000	0	142.013159164316
145.063699611439	3	30	INCORRECTLY	1.95866483256168	5	SURE_CORRECT	56	0	145.063699611439
150.518338275193	3	31	INCORRECTLY	2.0059963298072	5	SURE_CORRECT	43	0	150.518338275193
155.011280987193	3	32	INCORRECTLY	1.86551045880697	5	SURE_CORRECT	58	0	155.011280987193
159.52087192007	3	33	CORRECTLY	2.20272144592991	5	SURE_CORRECT	4	9	159.52087192007
167.014595345438	3	34	CORRECTLY	1.81497256256171	5	SURE_CORRECT	13	0	167.014595345438
173.513616732316	3	35	CORRECTLY	2.93159836168434	10	MAYBE_INCORRECT	11	21	173.513616732316
178.520600894193	3	36	CORRECTLY	2.15638568080703	5	SURE_CORRECT	15	30	178.520600894193
182.565864851438	3	37	INCORRECTLY	1.87406023056201	21	SURE_INCORRECT	46	0	182.565864851438
188.517857881193	2	38	CONTROL	1.80109992580719	28	n/a	1000	0	188.517857881193
193.508214453316	2	39	CONTROL	2.14165407668452	28	n/a	1000	0	193.508214453316
198.017704453316	3	40	INCORRECTLY	2.55424434768383	21	SURE_INCORRECT	62	0	198.017704453316
203.024701708983	2	41	CONTROL	1.42897747301731	5	n/a	1000	0	203.024701708983
207.517572255438	2	42	CONTROL	1.21786671656218	21	n/a	1000	0	207.517572255438
211.015845943193	2	43	CONTROL	1.41994808280697	28	n/a	1000	0	211.015845943193
218.509643451193	3	44	INCORRECTLY	2.43405043080702	5	SURE_CORRECT	49	0	218.509643451193
224.01395008707	3	45	CORRECTLY	2.75606221192993	5	SURE_CORRECT	27	47	224.01395008707
229.518215284316	3	46	CORRECTLY	1.97773649768442	21	SURE_INCORRECT	30	53	229.518215284316
235.022470197193	3	47	INCORRECTLY	2.34524183780741	21	SURE_INCORRECT	75	0	235.022470197193
244.522384306316	3	48	CORRECTLY	2.8355003666843	28	MAYBE_CORRECT	35	58	244.522384306316
252.01620818107	3	49	CORRECTLY	2.27266497292976	21	SURE_INCORRECT	32	55	252.01620818107
256.078124779193	2	50	CONTROL	1.98162782880718	21	n/a	1000	0	256.078124779193
259.078949608316	3	51	INCORRECTLY	2.31967871668439	28	MAYBE_CORRECT	70	0	259.078949608316
267.020341035193	2	52	CONTROL	1.49936136680708	21	n/a	1000	0	267.020341035193
272.52469020507	3	53	INCORRECTLY	2.79016165292978	21	SURE_INCORRECT	79	0	272.52469020507
277.515007515193	3	54	INCORRECTLY	2.56662752780676	21	SURE_INCORRECT	65	0	277.515007515193
282.00797156107	2	55	CONTROL	2.01685335692991	5	n/a	1000	0	282.00797156107
285.05860715172	3	56	INCORRECTLY	2.43429861928053	5	SURE_CORRECT	53	0	285.05860715172
292.021742087316	3	57	INCORRECTLY	2.76653632068428	21	SURE_INCORRECT	76	0	292.021742087316
296.067108291193	2	58	CONTROL	1.28804249080713	5	n/a	1000	0	296.067108291193
300.012931857193	3	59	INCORRECTLY	2.27455210280687	21	SURE_INCORRECT	41	0	300.012931857193
305.517288485193	2	60	CONTROL	1.81373775980683	10	n/a	1000	0	305.517288485193
310.026829989316	3	61	INCORRECTLY	2.81207251868409	28	MAYBE_CORRECT	63	0	310.026829989316
318.017972029088	3	62	CORRECTLY	2.81484805291257	10	MAYBE_INCORRECT	38	61	318.017972029088
325.014374562316	3	63	CORRECTLY	1.93339123468422	5	SURE_CORRECT	24	41	325.014374562316
330.021263484316	3	64	CORRECTLY	1.55849800268425	5	SURE_CORRECT	21	37	330.021263484316
335.525652294316	3	65	INCORRECTLY	1.99198702868398	21	SURE_INCORRECT	67	0	335.525652294316
341.510668311316	3	66	CORRECTLY	2.60232006068418	28	MAYBE_CORRECT	34	57	341.510668311316
346.517631466193	3	67	INCORRECTLY	2.02808167380726	21	SURE_INCORRECT	60	0	346.517631466193
351.010559125193	2	68	CONTROL	1.69937560380686	21	n/a	1000	0	351.010559125193
355.02279672307	3	69	CORRECTLY	2.84864041592982	10	MAYBE_INCORRECT	22	38	355.02279672307
362.516515145316	3	70	CORRECTLY	2.17907011668422	21	SURE_INCORRECT	25	44	362.516515145316
367.00962732186	3	71	INCORRECTLY	2.77917733714048	10	MAYBE_INCORRECT	71	0	367.00962732186
371.071364822316	3	72	INCORRECTLY	2.77928504668444	10	MAYBE_INCORRECT	57	0	371.071364822316
375.51464311007	3	73	CORRECTLY	2.10698233392986	5	SURE_CORRECT	19	35	375.51464311007
381.018971711193	2	74	CONTROL	1.85142525680703	28	n/a	1000	0	381.018971711193
386.025854281088	3	75	INCORRECTLY	2.25760732391245	21	SURE_INCORRECT	74	0	386.025854281088
391.513591069193	2	76	CONTROL	1.76966034680709	10	n/a	1000	0	391.513591069193
395.509189354316	3	77	CORRECTLY	3.22231146168451	10	MAYBE_INCORRECT	17	32	395.509189354316
401.013413599316	2	78	CONTROL	1.79290843368426	5	n/a	1000	0	401.013413599316
405.009035559211	3	79	INCORRECTLY	3.17649217078952	21	SURE_INCORRECT	77	0	405.009035559211
409.518621480211	2	80	CONTROL	1.91988292278938	10	n/a	1000	0	409.518621480211
415.520249222193	3	81	INCORRECTLY	2.65981903780721	21	SURE_INCORRECT	44	0	415.520249222193
421.521922644316	3	82	CORRECTLY	3.22251842568403	28	MAYBE_CORRECT	40	64	421.521922644316
426.014855878193	3	83	CORRECTLY	2.63478381780715	10	MAYBE_INCORRECT	28	48	426.014855878193
430.076809480316	3	84	INCORRECTLY	3.16318009868382	10	MAYBE_INCORRECT	50	0	430.076809480316
437.023449246316	3	85	INCORRECTLY	2.2476354986843	21	SURE_INCORRECT	72	0	437.023449246316
443.506048742719	3	86	INCORRECTLY	3.20969468728072	5	SURE_CORRECT	69	0	443.506048742719
447.567857615193	3	87	CORRECTLY	2.82393606880714	28	MAYBE_CORRECT	18	34	447.567857615193
452.52507892607	2	88	CONTROL	1.55600480692965	10	n/a	1000	0	452.52507892607
455.559050223316	2	89	CONTROL	1.19541013068419	28	n/a	1000	0	455.559050223316
462.008310570193	3	90	INCORRECTLY	3.57214240480744	10	MAYBE_INCORRECT	61	0	462.008310570193
466.070227884193	2	91	CONTROL	2.23648315480705	21	n/a	1000	0	466.070227884193
470.513484723193	3	92	INCORRECTLY	1.76625622780739	21	SURE_INCORRECT	73	0	470.513484723193
474.575329988316	3	93	CORRECTLY	2.58813416068415	10	MAYBE_INCORRECT	29	52	474.575329988316
479.515972550193	3	94	CORRECTLY	2.79038510080727	21	SURE_INCORRECT	20	36	479.515972550193
484.522922612316	2	95	CONTROL	1.54673543168428	10	n/a	1000	0	484.522922612316
489.015819673193	3	96	CORRECTLY	2.39291648580684	21	SURE_INCORRECT	31	54	489.015819673193
493.061244032983	3	97	CORRECTLY	2.40257050301716	5	SURE_CORRECT	23	40	493.061244032983
498.018396831982	3	98	CORRECTLY	1.73998921901784	21	SURE_INCORRECT	37	60	498.018396831982
502.511386942211	3	99	CORRECTLY	3.24605684978951	5	SURE_CORRECT	36	59	502.511386942211
506.573211936438	2	100	CONTROL	2.00323203656171	21	n/a	1000	0	506.573211936438
510.021705963193	3	101	INCORRECTLY	2.34449320580688	21	SURE_INCORRECT	54	0	510.021705963193
514.067054492316	3	102	CORRECTLY	2.2626590086843	5	SURE_CORRECT	39	63	514.067054492316
518.079246005983	3	103	CORRECTLY	2.31846502801727	5	SURE_CORRECT	33	56	518.079246005983
522.058224722316	3	104	CORRECTLY	1.9093559966841	5	SURE_CORRECT	26	45	522.058224722316
