onset	duration	trial_number	trial_type	trial_type_coded	reaction_time	expected_response_coded	response	response_coded	accuracy	accuracy_scrambled	accuracy_task	rec_codes_during_enc	onset_probe	onset_noTriggerAdjust	onset_probe_noTriggerAdjust
0.0130853780046891	2	1	CONTROL	1	0.765499024781093	1	LEFT	5	1	1	0	0	0.0463357012185952	0.0130853780046891	0.0463357012185952
4.5226935910041	2	2	CONTROL	1	0.713941325426276	2	RIGHT	28	1	1	0	0	4.53932889557382	4.5226935910041	4.53932889557382
11.5190705220048	4	3	TASK	2	0.737335473712847	1	LEFT	5	1	0	1	16	12.5139021912873	11.5190705220048	12.5139021912873
19.526919642647	2	4	CONTROL	1	0.645448598712392	1	LEFT	5	1	1	0	0	19.5434833082873	19.526919642647	19.5434833082873
22.0635056974324	4	5	TASK	2	1.04506894971291	2	RIGHT	28	1	0	1	28	23.008539459287	22.0635056974324	23.008539459287
38.510076558432	4	6	TASK	2	1.15341270771205	1	LEFT	5	1	0	1	1	39.5214351432878	38.510076558432	39.5214351432878
49.5186707562189	2	7	CONTROL	1	0.745536764780809	2	RIGHT	28	1	1	0	0	49.5352454812191	49.5186707562189	49.5352454812191
56.5151499205012	2	8	CONTROL	1	0.588253496712241	2	RIGHT	28	1	1	0	0	56.5317151662875	56.5151499205012	56.5317151662875
66.0149803342192	4	9	TASK	2	1.00506905299608	2	RIGHT	28	1	0	1	33	67.0096658910043	66.0149803342192	67.0096658910043
70.5244735764327	2	10	CONTROL	1	1.42302466999536	2	RIGHT	28	1	1	0	0	70.5410506350045	70.5244735764327	70.5410506350045
76.0122182162186	4	11	TASK	2	0.992563672567485	2	RIGHT	28	1	0	1	17	77.0069617074323	76.0122182162186	77.0069617074323
81.5164426100046	4	12	TASK	2	0.826433545781583	2	RIGHT	28	1	0	1	11	82.5112788472188	81.5164426100046	82.5112788472188
92.5085302626467	4	13	TASK	2	0.784293317712581	1	LEFT	5	1	0	1	8	93.5199315072878	92.5085302626467	93.5199315072878
98.012836504432	2	14	CONTROL	1	0.792997146352718	1	LEFT	5	1	1	0	0	98.0294023906472	98.012836504432	98.0294023906472
104.511886536501	4	15	TASK	2	0.580185849712507	1	LEFT	5	1	0	1	5	105.506663667287	104.511886536501	105.506663667287
109.021390158219	2	16	CONTROL	1	0.927273793426139	1	LEFT	5	1	1	0	0	109.037980805574	109.021390158219	109.037980805574
112.022201363432	2	17	CONTROL	1	0.584320361780556	2	RIGHT	28	1	1	0	0	112.038805919219	112.022201363432	112.038805919219
118.521263568432	4	18	TASK	2	0.62784832178113	2	RIGHT	28	1	0	1	25	119.515964115219	118.521263568432	119.515964115219
125.020322596219	2	19	CONTROL	1	0.654395217567981	1	LEFT	5	1	1	0	0	125.036923646432	125.020322596219	125.036923646432
129.015946590219	4	20	TASK	2	0.900044998781595	1	LEFT	5	1	0	1	21	130.010661385219	129.015946590219	130.010661385219
135.017608319433	4	21	TASK	2	0.712383446567401	2	RIGHT	28	1	0	1	35	136.012354691433	135.017608319433	136.012354691433
151.016532988219	4	22	TASK	2	0.561158719138803	1	LEFT	5	1	0	1	4	152.011271515861	151.016532988219	152.011271515861
155.526083527432	4	23	TASK	2	0.89482182656775	2	RIGHT	28	1	0	1	34	156.520782866432	155.526083527432	156.520782866432
161.013754384432	2	24	CONTROL	1	0.552399764781512	2	RIGHT	28	1	1	0	0	161.030333031219	161.013754384432	161.030333031219
165.025941825433	2	25	CONTROL	1	0.631209454998498	1	LEFT	5	1	1	0	0	165.042569286002	165.025941825433	165.042569286002
174.509192063219	2	26	CONTROL	1	0.537009924426457	2	RIGHT	28	1	1	0	0	174.525849982574	174.509192063219	174.525849982574
179.516244409288	2	27	CONTROL	1	0.495972385712776	2	RIGHT	28	1	1	0	0	179.532769685287	179.516244409288	179.532769685287
182.052895788501	4	28	TASK	2	0.861570268712057	2	RIGHT	28	1	0	1	15	183.014440556288	182.052895788501	183.014440556288
189.016102394287	2	29	CONTROL	1	0.526467690712707	2	RIGHT	28	1	1	0	0	189.032709252288	189.016102394287	189.032709252288
193.011594856433	4	30	TASK	2	0.65028128535323	2	RIGHT	28	1	0	1	36	194.006404006647	193.011594856433	194.006404006647
202.014075786433	4	31	TASK	2	0.655874663711984	2	RIGHT	28	1	0	1	14	203.008935540288	202.014075786433	203.008935540288
209.507895207433	4	32	TASK	2	0.762923860713272	1	LEFT	5	1	0	1	77	210.519321698287	209.507895207433	210.519321698287
216.007002775287	2	33	CONTROL	1	0.794882472499012	2	RIGHT	28	1	1	0	0	216.023605437501	216.007002775287	216.023605437501
220.516480837432	4	34	TASK	2	0.650738320712662	1	LEFT	5	1	0	1	87	221.511320276288	220.516480837432	221.511320276288
226.020872598287	4	35	TASK	2	0.69921298978079	1	LEFT	5	1	0	1	73	227.015548059219	226.020872598287	227.015548059219
240.013671594004	4	36	TASK	2	0.643422933781039	1	LEFT	5	1	0	1	94	241.008390071219	240.013671594004	241.008390071219
254.023115761647	4	37	TASK	2	0.695615903568068	1	LEFT	5	1	0	1	64	255.017856102432	254.023115761647	255.017856102432
261.516881298219	4	38	TASK	2	0.869491368781382	2	RIGHT	28	1	0	1	69	262.511668687219	261.516881298219	262.511668687219
280.019242549004	2	39	CONTROL	1	0.635754482997982	1	LEFT	5	1	1	0	0	280.035916355002	280.019242549004	280.035916355002
283.020042661004	4	40	TASK	2	0.648418275352924	2	RIGHT	28	1	0	1	97	284.014884345647	283.020042661004	284.014884345647
292.02252048879	4	41	TASK	2	0.447503283712649	1	LEFT	5	1	0	1	63	293.017409416288	292.02252048879	293.017409416288
297.526829729005	2	42	CONTROL	1	0.647297882854218	1	LEFT	5	1	1	0	0	297.543492262146	297.526829729005	297.543492262146
305.518205019715	2	43	CONTROL	1	0.59169347171246	1	LEFT	5	1	1	0	0	305.534713190287	305.518205019715	305.534713190287
316.510164672288	4	44	TASK	2	0.605637994712197	1	LEFT	5	1	0	1	70	317.521472727288	316.510164672288	317.521472727288
324.020548515287	4	45	TASK	2	0.75025156756783	1	LEFT	5	1	0	1	104	325.015247576433	324.020548515287	325.015247576433
331.016833386219	2	46	CONTROL	1	0.579684663567605	1	LEFT	5	1	1	0	0	331.033443084432	331.016833386219	331.033443084432
336.521212364432	4	47	TASK	2	0.619086911781778	2	RIGHT	28	1	0	1	45	337.515953545219	336.521212364432	337.515953545219
347.015807285647	4	48	TASK	2	0.627748977712145	2	RIGHT	28	1	0	1	83	348.010637135288	347.015807285647	348.010637135288
358.024357856432	2	49	CONTROL	1	0.5277267900683	1	LEFT	5	1	1	0	0	358.041015609931	358.024357856432	358.041015609931
363.014699710432	2	50	CONTROL	1	0.584763160995863	2	RIGHT	28	1	1	0	0	363.031243822004	363.014699710432	363.031243822004
370.508522966219	2	51	CONTROL	1	0.490521653783617	2	RIGHT	28	1	1	0	0	370.525250727216	370.508522966219	370.525250727216
376.526843689287	4	52	TASK	2	0.547705059211694	2	RIGHT	28	1	0	1	93	377.505027451788	376.526843689287	377.505027451788
383.506591908219	4	53	TASK	2	1.63666453856786	1	LEFT	5	1	0	1	46	384.517953186432	383.506591908219	384.517953186432
390.519620909432	4	54	TASK	2	0.954508612780955	2	RIGHT	28	1	0	1	96	391.514406920219	390.519620909432	391.514406920219
405.009901798288	4	55	TASK	2	0.759649710713347	2	RIGHT	28	1	0	1	49	406.004715800287	405.009901798288	406.004715800287
412.006223199219	4	56	TASK	2	1.11451234699507	2	RIGHT	28	1	0	1	103	413.017575345005	412.006223199219	413.017575345005
418.521935803219	4	57	TASK	2	1.47715886778042	2	RIGHT	28	1	0	1	66	419.516587991219	418.521935803219	419.516587991219
429.513956241288	4	58	TASK	2	0.781634292568015	2	RIGHT	28	1	0	1	48	430.508616203432	429.513956241288	430.508616203432
443.506768853646	4	59	TASK	2	1.00548527156752	2	RIGHT	28	1	0	1	99	444.518071734433	443.506768853646	444.518071734433
448.032991699501	4	60	TASK	2	0.9699878324991	1	LEFT	5	1	0	1	98	449.011085148501	448.032991699501	449.011085148501
453.023244205432	4	61	TASK	2	1.45367383799567	2	RIGHT	28	1	0	1	62	454.017902555004	453.023244205432	454.017902555004
459.522264835219	2	62	CONTROL	1	0.702330695780802	1	LEFT	5	1	1	0	0	459.538818989219	459.522264835219	459.538818989219
465.026613019288	4	63	TASK	2	0.692541625712693	1	LEFT	5	1	0	1	102	466.004767137288	465.026613019288	466.004767137288
473.515132056433	4	64	TASK	2	0.66397796649926	2	RIGHT	28	1	0	1	82	474.509916004501	473.515132056433	474.509916004501
