onset	duration	trial_number	trial_type	reaction_time	response_coded	response_str	pairno_rec	enc_codes_during_rec	onset_noTriggerAdjust
0.0788040739134885	3	1	CORRECTLY	2.23881527108642	5	SURE_CORRECT	3	6	0.0788040739134885
4.5218851555328	3	2	INCORRECTLY	2.22307385846761	21	SURE_INCORRECT	55	0	4.5218851555328
13.0270776508705	2	3	CONTROL	0.909956400129886	5	n/a	1000	0	13.0270776508705
16.0776302452077	3	4	CORRECTLY	1.79827296179246	21	SURE_INCORRECT	12	0	16.0776302452077
21.0183064462517	3	5	CORRECTLY	1.44665623474793	5	SURE_CORRECT	8	15	21.0183064462517
25.0635247548707	2	6	CONTROL	1.19003489512943	28	n/a	1000	0	25.0635247548707
29.0094192502083	3	7	INCORRECTLY	1.16589622979154	21	SURE_INCORRECT	59	0	29.0094192502083
36.0223805252081	3	8	CORRECTLY	1.02583276079167	5	SURE_CORRECT	7	13	36.0223805252081
40.5153861012077	3	9	INCORRECTLY	1.17991250679188	21	SURE_INCORRECT	68	0	40.5153861012077
47.0144225542081	3	10	INCORRECTLY	1.37604357079181	21	SURE_INCORRECT	64	0	47.0144225542081
51.0762844405326	3	11	CORRECTLY	1.08430534046693	5	SURE_CORRECT	6	12	51.0762844405326
56.0169393949136	2	12	CONTROL	0.801121372086527	5	n/a	1000	0	56.0169393949136
61.5212797712084	3	13	INCORRECTLY	1.31716771879201	21	SURE_INCORRECT	78	0	61.5212797712084
65.5666018688707	3	14	CORRECTLY	1.27080364112953	5	SURE_CORRECT	16	31	65.5666018688707
69.5622039452228	3	15	CORRECTLY	1.09526244377685	5	SURE_CORRECT	14	0	69.5622039452228
75.0166681008704	3	16	CORRECTLY	0.745355672129335	5	SURE_CORRECT	1	3	75.0166681008704
79.0785481981939	3	17	CORRECTLY	1.014550529806	5	SURE_CORRECT	5	11	79.0785481981939
83.521845134871	3	18	INCORRECTLY	1.15612978512854	21	SURE_INCORRECT	51	0	83.521845134871
90.0208283968705	3	19	INCORRECTLY	1.17606908312973	21	SURE_INCORRECT	47	0	90.0208283968705
94.0663487716329	3	20	INCORRECTLY	1.22300885836739	21	SURE_INCORRECT	66	0	94.0663487716329
99.0233980889134	3	21	CORRECTLY	0.918435396086352	5	SURE_CORRECT	10	20	99.0233980889134
103.068692509532	3	22	INCORRECTLY	1.50478874546752	21	SURE_INCORRECT	48	0	103.068692509532
107.064335371871	3	23	INCORRECTLY	1.4490383871298	21	SURE_INCORRECT	52	0	107.064335371871
115.02234416687	3	24	INCORRECTLY	1.13235082112988	21	SURE_INCORRECT	45	0	115.02234416687
119.515379499928	3	25	CORRECTLY	0.801706083072531	5	SURE_CORRECT	9	18	119.515379499928
125.51695286687	3	26	INCORRECTLY	1.58442905412994	21	SURE_INCORRECT	42	0	125.51695286687
131.02120942187	3	27	INCORRECTLY	1.77301260512922	21	SURE_INCORRECT	80	0	131.02120942187
137.022927411871	3	28	CORRECTLY	1.16480487812896	5	SURE_CORRECT	2	5	137.022927411871
142.013334942928	2	29	CONTROL	0.98865363807181	10	n/a	1000	0	142.013334942928
145.063805876871	3	30	INCORRECTLY	1.27214820712925	21	SURE_INCORRECT	56	0	145.063805876871
150.518358128533	3	31	INCORRECTLY	1.13133285046752	21	SURE_INCORRECT	43	0	150.518358128533
155.011372970208	3	32	INCORRECTLY	1.55148603879206	21	SURE_INCORRECT	58	0	155.011372970208
159.504268649871	3	33	CORRECTLY	1.23424554112898	5	SURE_CORRECT	4	9	159.504268649871
167.014670063532	3	34	CORRECTLY	0.849302169467592	5	SURE_CORRECT	13	0	167.014670063532
173.513722917871	3	35	CORRECTLY	0.895541812129522	5	SURE_CORRECT	11	21	173.513722917871
178.520638946208	3	36	CORRECTLY	1.32738930079176	5	SURE_CORRECT	15	30	178.520638946208
182.565931228208	3	37	INCORRECTLY	0.873025540791787	21	SURE_INCORRECT	46	0	182.565931228208
188.517932699208	2	38	CONTROL	0.825252770791849	28	n/a	1000	0	188.517932699208
193.50819558187	2	39	CONTROL	0.629203410129776	28	n/a	1000	0	193.50819558187
198.017762644208	3	40	INCORRECTLY	1.73668611679204	21	SURE_INCORRECT	62	0	198.017762644208
203.024704027208	2	41	CONTROL	0.955526109792117	28	n/a	1000	0	203.024704027208
207.517678166208	2	42	CONTROL	0.932449003791589	10	n/a	1000	0	207.517678166208
211.015919827208	2	43	CONTROL	0.826420644792051	28	n/a	1000	0	211.015919827208
218.509691550208	3	44	INCORRECTLY	1.86774929279181	21	SURE_INCORRECT	49	0	218.509691550208
224.014001481546	3	45	CORRECTLY	2.18314580045353	28	MAYBE_CORRECT	27	47	224.014001481546
229.51821634387	3	46	CORRECTLY	0.860337686129242	5	SURE_CORRECT	30	53	229.51821634387
235.022602416871	3	47	INCORRECTLY	0.981187370129192	21	SURE_INCORRECT	75	0	235.022602416871
244.522439213871	3	48	CORRECTLY	1.07348139912938	5	SURE_CORRECT	35	58	244.522439213871
252.016212557208	3	49	CORRECTLY	0.919824674791926	5	SURE_CORRECT	32	55	252.016212557208
256.078194987871	2	50	CONTROL	1.0595194881289	21	n/a	1000	0	256.078194987871
259.062471202589	3	51	INCORRECTLY	1.48043710241109	21	SURE_INCORRECT	70	0	259.062471202589
267.020442312871	2	52	CONTROL	0.934052327129393	21	n/a	1000	0	267.020442312871
272.524705647208	3	53	INCORRECTLY	1.18773988079192	21	SURE_INCORRECT	79	0	272.524705647208
277.51508375787	3	54	INCORRECTLY	2.33671471312937	21	SURE_INCORRECT	65	0	277.51508375787
282.008014749533	2	55	CONTROL	0.85011690646752	5	n/a	1000	0	282.008014749533
285.058616852208	3	56	INCORRECTLY	1.56346478379237	21	SURE_INCORRECT	53	0	285.058616852208
292.005314721928	3	57	INCORRECTLY	1.16253632007192	21	SURE_INCORRECT	76	0	292.005314721928
296.067202733208	2	58	CONTROL	0.734299978791569	5	n/a	1000	0	296.067202733208
300.013053738223	3	59	INCORRECTLY	1.13905945077749	21	SURE_INCORRECT	41	0	300.013053738223
305.51727605887	2	60	CONTROL	0.910341235129636	10	n/a	1000	0	305.51727605887
310.010309769871	3	61	INCORRECTLY	1.50470859312918	21	SURE_INCORRECT	63	0	310.010309769871
318.018063827871	3	62	CORRECTLY	1.05980902112969	5	SURE_CORRECT	38	61	318.018063827871
325.014515097295	3	63	CORRECTLY	0.929657809705532	5	SURE_CORRECT	24	41	325.014515097295
330.02147370059	3	64	CORRECTLY	1.01192244541016	5	SURE_CORRECT	21	37	330.02147370059
335.52571313187	3	65	INCORRECTLY	1.1644671631293	21	SURE_INCORRECT	67	0	335.52571313187
341.527348035546	3	66	CORRECTLY	0.80479943145383	5	SURE_CORRECT	34	57	341.527348035546
346.51772911287	3	67	INCORRECTLY	1.35203385012937	21	SURE_INCORRECT	60	0	346.51772911287
351.010659425208	2	68	CONTROL	1.03851344679151	21	n/a	1000	0	351.010659425208
355.022752337532	3	69	CORRECTLY	1.27116091046719	5	SURE_CORRECT	22	38	355.022752337532
362.516640645208	3	70	CORRECTLY	1.4552892127922	5	SURE_CORRECT	25	44	362.516640645208
367.009552698871	3	71	INCORRECTLY	1.0842984981291	21	SURE_INCORRECT	71	0	367.009552698871
371.054853773532	3	72	INCORRECTLY	1.8322366484681	21	SURE_INCORRECT	57	0	371.054853773532
375.514748008208	3	73	CORRECTLY	0.978789191792202	5	SURE_CORRECT	19	35	375.514748008208
381.019006898208	2	74	CONTROL	1.0021706907919	5	n/a	1000	0	381.019006898208
386.009477524633	3	75	INCORRECTLY	1.16259442636783	21	SURE_INCORRECT	74	0	386.009477524633
391.513768811633	2	76	CONTROL	0.907366494367125	10	n/a	1000	0	391.513768811633
395.525770319208	3	77	CORRECTLY	1.29455203579164	5	SURE_CORRECT	17	32	395.525770319208
401.013515593208	2	78	CONTROL	0.955394082791827	5	n/a	1000	0	401.013515593208
405.025635925533	3	79	INCORRECTLY	2.08832094246736	21	SURE_INCORRECT	77	0	405.025635925533
409.518598164533	2	80	CONTROL	0.920304166466849	10	n/a	1000	0	409.518598164533
415.52033398887	3	81	INCORRECTLY	2.59092742012945	10	MAYBE_INCORRECT	44	0	415.52033398887
421.521982628208	3	82	CORRECTLY	1.1408669567918	5	SURE_CORRECT	40	64	421.521982628208
426.014898770532	3	83	CORRECTLY	1.28122758946756	5	SURE_CORRECT	28	48	426.014898770532
430.07682207687	3	84	INCORRECTLY	1.59459027812954	21	SURE_INCORRECT	50	0	430.07682207687
437.023510356532	3	85	INCORRECTLY	1.4204770014685	21	SURE_INCORRECT	72	0	437.023510356532
443.522593413871	3	86	INCORRECTLY	2.6698366581295	28	MAYBE_CORRECT	69	0	443.522593413871
447.567885276532	3	87	CORRECTLY	1.44537630646755	5	SURE_CORRECT	18	34	447.567885276532
452.508520175208	2	88	CONTROL	0.966557136792289	10	n/a	1000	0	452.508520175208
455.559052681885	2	89	CONTROL	0.978579505114794	28	n/a	1000	0	455.559052681885
462.008438726546	3	90	INCORRECTLY	1.37441246545404	21	SURE_INCORRECT	61	0	462.008438726546
466.070265446532	2	91	CONTROL	1.07067219446799	21	n/a	1000	0	466.070265446532
470.513563270632	3	92	INCORRECTLY	1.08202550636724	21	SURE_INCORRECT	73	0	470.513563270632
474.558816601208	3	93	CORRECTLY	3.17264350579171	28	MAYBE_CORRECT	29	52	474.558816601208
479.516045164208	3	94	CORRECTLY	1.03601831679225	5	SURE_CORRECT	20	36	479.516045164208
484.522890778532	2	95	CONTROL	1.0016048674679	10	n/a	1000	0	484.522890778532
489.015874565871	3	96	CORRECTLY	1.10715698112926	5	SURE_CORRECT	31	54	489.015874565871
493.077887738928	3	97	CORRECTLY	1.11822093407227	5	SURE_CORRECT	23	40	493.077887738928
498.01840223287	3	98	CORRECTLY	0.743892537129796	5	SURE_CORRECT	37	60	498.01840223287
502.511317044532	3	99	CORRECTLY	2.24381601046753	28	MAYBE_CORRECT	36	59	502.511317044532
506.573222584532	2	100	CONTROL	1.17833202646761	21	n/a	1000	0	506.573222584532
510.021700453533	3	101	INCORRECTLY	1.6656134304676	21	SURE_INCORRECT	54	0	510.021700453533
514.067123216871	3	102	CORRECTLY	0.813928473129636	5	SURE_CORRECT	39	63	514.067123216871
518.062687339208	3	103	CORRECTLY	1.79641738079135	28	MAYBE_CORRECT	33	56	518.062687339208
522.074840740871	3	104	CORRECTLY	1.18717301612924	5	SURE_CORRECT	26	45	522.074840740871
