onset	duration	trial_number	trial_type	trial_type_coded	reaction_time	expected_response_coded	response	response_coded	accuracy	accuracy_scrambled	accuracy_task	rec_codes_during_enc	onset_probe	onset_noTriggerAdjust	onset_probe_noTriggerAdjust
0.0132180616460573	2	1	CONTROL	1	1.20582660735408	1	LEFT	5	1	1	0	0	0.0464165776461414	0.0132180616460573	0.0464165776461414
4.52280542964627	2	2	CONTROL	1	1.00080215585922	2	RIGHT	28	1	1	0	0	4.53935742614067	4.52280542964627	4.53935742614067
11.5192578376459	4	3	TASK	2	1.20968892585961	1	LEFT	5	1	0	1	16	12.5139469051405	11.5192578376459	12.5139469051405
19.5104089386355	2	4	CONTROL	1	0.737155606354008	1	LEFT	5	1	1	0	0	19.5269996886459	19.5104089386355	19.5269996886459
22.0470308026461	4	5	TASK	2	1.24784458885915	2	RIGHT	28	1	0	1	28	23.0086109191407	22.0470308026461	23.0086109191407
38.5102784626351	4	6	TASK	2	0.919123603354365	1	LEFT	5	1	0	1	1	39.5214890936459	38.5102784626351	39.5214890936459
49.5187241806461	2	7	CONTROL	1	1.20891388992413	2	RIGHT	28	1	1	0	0	49.535523249076	49.5187241806461	49.535523249076
56.5152159651516	2	8	CONTROL	1	0.776365864859144	2	RIGHT	28	1	1	0	0	56.5317241291409	56.5152159651516	56.5317241291409
66.0151157110436	4	9	TASK	2	0.966894767956546	2	RIGHT	28	1	0	1	33	67.0098727200434	66.0151157110436	67.0098727200434
70.5246000811408	2	10	CONTROL	1	1.87329156035412	2	RIGHT	28	1	1	0	0	70.5411324236461	70.5246000811408	70.5411324236461
76.0123316531408	4	11	TASK	2	0.997695418462172	2	RIGHT	28	1	0	1	17	77.0071467265379	76.0123316531408	77.0071467265379
81.5165817061406	4	12	TASK	2	0.697747408353734	2	RIGHT	28	1	0	1	11	82.5113983016463	81.5165817061406	82.5113983016463
92.5086293546356	4	13	TASK	2	1.13013612395662	1	LEFT	5	1	0	1	8	93.5200288840433	92.5086293546356	93.5200288840433
98.0129457771409	2	14	CONTROL	1	1.84563898885926	1	LEFT	5	1	1	0	0	98.0295053291406	98.0129457771409	98.0295053291406
104.512041983043	4	15	TASK	2	0.771428367461795	1	LEFT	5	1	0	1	5	105.506854601538	104.512041983043	105.506854601538
109.021541613043	2	16	CONTROL	1	0.972356165451401	1	LEFT	5	1	1	0	0	109.038131512549	109.021541613043	109.038131512549
112.022340295141	2	17	CONTROL	1	1.02789901635424	2	RIGHT	28	1	1	0	0	112.038927640646	112.022340295141	112.038927640646
118.521418425141	4	18	TASK	2	1.18877931195675	2	RIGHT	28	1	0	1	25	119.516263298043	118.521418425141	119.516263298043
125.020386810646	2	19	CONTROL	1	1.3377481263542	1	LEFT	5	1	1	0	0	125.036993292646	125.020386810646	125.036993292646
129.016106097538	4	20	TASK	2	1.15307672846211	1	LEFT	5	1	0	1	21	130.010858759538	129.016106097538	130.010858759538
135.017635953646	4	21	TASK	2	0.94464665185933	2	RIGHT	28	1	0	1	35	136.012446080141	135.017635953646	136.012446080141
151.016603072141	4	22	TASK	2	0.762019545461953	1	LEFT	5	1	0	1	4	152.011439023538	151.016603072141	152.011439023538
155.526232128043	4	23	TASK	2	3.092381899462	2	RIGHT	28	1	0	1	34	156.520998813538	155.526232128043	156.520998813538
161.013943814538	2	24	CONTROL	1	0.743959854956756	2	RIGHT	28	1	1	0	0	161.030492653043	161.013943814538	161.030492653043
165.009540134538	2	25	CONTROL	1	0.628035638957044	1	LEFT	5	1	1	0	0	165.026084999043	165.009540134538	165.026084999043
174.525908880646	2	26	CONTROL	1	0.859612068418301	2	RIGHT	28	1	1	0	0	174.542580683581	174.525908880646	174.542580683581
179.516224847152	2	27	CONTROL	1	1.29659517785922	2	RIGHT	28	1	1	0	0	179.532807387141	179.516224847152	179.532807387141
182.052886516141	4	28	TASK	2	1.7857930088594	2	RIGHT	28	1	0	1	15	183.014466499141	182.052886516141	183.014466499141
189.016223448044	2	29	CONTROL	1	0.835336892957002	2	RIGHT	28	1	1	0	0	189.032760654043	189.016223448044	189.032760654043
193.011822446538	4	30	TASK	2	1.03730208895649	2	RIGHT	28	1	0	1	36	194.006513121044	193.011822446538	194.006513121044
202.014293457044	4	31	TASK	2	1.49077415395641	2	RIGHT	28	1	0	1	14	203.009035061044	202.014293457044	203.009035061044
209.524688748538	4	32	TASK	2	0.882516485956785	1	LEFT	5	1	0	1	77	210.519429803043	209.524688748538	210.519429803043
216.007144816538	2	33	CONTROL	1	1.91139730995656	2	RIGHT	28	1	1	0	0	216.023723899043	216.007144816538	216.023723899043
220.516700597043	4	34	TASK	2	1.00347185885903	1	LEFT	5	1	0	1	87	221.511380313141	220.516700597043	221.511380313141
226.020939328141	4	35	TASK	2	0.686140395462189	1	LEFT	5	1	0	1	73	227.015760143538	226.020939328141	227.015760143538
240.013741106151	4	36	TASK	2	0.592715616956866	1	LEFT	5	1	0	1	94	241.008556267043	240.013741106151	241.008556267043
254.023274623538	4	37	TASK	2	0.602267755956746	1	LEFT	5	1	0	1	64	255.018030130043	254.023274623538	255.018030130043
261.516971065141	4	38	TASK	2	1.0946350528593	2	RIGHT	28	1	0	1	69	262.511753256141	261.516971065141	262.511753256141
280.019393419646	2	39	CONTROL	1	0.877176605858949	1	LEFT	5	1	1	0	0	280.035918144141	280.019393419646	280.035918144141
283.020306975538	4	40	TASK	2	0.949032664461811	2	RIGHT	28	1	0	1	97	284.015063579538	283.020306975538	284.015063579538
292.006139394635	4	41	TASK	2	0.827853334956671	1	LEFT	5	1	0	1	63	293.017502289043	292.006139394635	293.017502289043
297.527105672538	2	42	CONTROL	1	0.643479285956346	1	LEFT	5	1	1	0	0	297.543671949044	297.527105672538	297.543671949044
305.518212992646	2	43	CONTROL	1	0.613750141848413	1	LEFT	5	1	1	0	0	305.534712091152	305.518212992646	305.534712091152
316.510276848538	4	44	TASK	2	1.47851012135379	1	LEFT	5	1	0	1	70	317.521512381646	316.510276848538	317.521512381646
324.020593087141	4	45	TASK	2	0.603029701462219	1	LEFT	5	1	0	1	104	325.015402748538	324.020593087141	325.015402748538
331.016965177141	2	46	CONTROL	1	0.809097125353674	1	LEFT	5	1	1	0	0	331.033565746646	331.016965177141	331.033565746646
336.521401325538	4	47	TASK	2	1.36696282285948	2	RIGHT	28	1	0	1	45	337.516081144141	336.521401325538	337.516081144141
347.015870515646	4	48	TASK	2	1.15344354735407	2	RIGHT	28	1	0	1	83	348.010624152646	347.015870515646	348.010624152646
358.024584521043	2	49	CONTROL	1	n/a	1	n/a	n/a	0	0	0	0	358.041151466043	358.024584521043	358.041151466043
363.014912710044	2	50	CONTROL	1	1.06390523595655	2	RIGHT	28	1	1	0	0	363.031468840044	363.014912710044	363.031468840044
370.525279696044	2	51	CONTROL	1	0.82063485646222	2	RIGHT	28	1	1	0	0	370.541886476538	370.525279696044	370.541886476538
376.510426358043	4	52	TASK	2	0.779452035956638	2	RIGHT	28	1	0	1	93	377.521728759044	376.510426358043	377.521728759044
383.506711425151	4	53	TASK	2	0.734376554858954	1	LEFT	5	1	0	1	46	384.518061761141	383.506711425151	384.518061761141
390.519796735043	4	54	TASK	2	1.16031571095664	2	RIGHT	28	1	0	1	96	391.514544480043	390.519796735043	391.514544480043
405.026571301646	4	55	TASK	2	1.96003714435392	2	RIGHT	28	1	0	1	49	406.021314624646	405.026571301646	406.021314624646
412.023056236043	4	56	TASK	2	1.08575802485893	2	RIGHT	28	1	0	1	103	413.017716505141	412.023056236043	413.017716505141
418.522063412043	4	57	TASK	2	0.877705860461901	2	RIGHT	28	1	0	1	66	419.516877423538	418.522063412043	419.516877423538
429.513949217657	4	58	TASK	2	0.826493477462009	2	RIGHT	28	1	0	1	48	430.508864632538	429.513949217657	430.508864632538
443.506916607043	4	59	TASK	2	0.757963446956637	2	RIGHT	28	1	0	1	99	444.518289775043	443.506916607043	444.518289775043
448.033081456538	4	60	TASK	2	0.951278468859527	1	LEFT	5	1	0	1	98	449.011191348141	448.033081456538	449.011191348141
453.023310458646	4	61	TASK	2	1.93852034084875	2	RIGHT	28	1	0	1	62	454.018044738151	453.023310458646	454.018044738151
459.522421027043	2	62	CONTROL	1	1.01534120895667	1	LEFT	5	1	1	0	0	459.539000409043	459.522421027043	459.539000409043
465.026681320646	4	63	TASK	2	0.693175051859271	1	LEFT	5	1	0	1	102	466.021425975141	465.026681320646	466.021425975141
473.515174027151	4	64	TASK	2	3.0007894453538	2	RIGHT	28	1	0	1	82	474.510007082646	473.515174027151	474.510007082646
