onset	duration	trial_number	trial_type	reaction_time	response_coded	response_str	pairno_rec	enc_codes_during_rec	onset_noTriggerAdjust
0.0971580170007655	3	1	CORRECTLY	3.14427137500024	5	SURE_CORRECT	3	6	0.0971580170007655
4.51520990000063	3	2	INCORRECTLY	1.99834782899961	21	SURE_INCORRECT	55	0	4.51520990000063
13.0203298680008	2	3	CONTROL	1.71775320300003	5	n/a	1000	0	13.0203298680008
16.064999825001	3	4	CORRECTLY	2.24079974499909	21	SURE_INCORRECT	12	0	16.064999825001
21.0124259060012	3	5	CORRECTLY	1.80538834099934	5	SURE_CORRECT	8	15	21.0124259060012
25.0830159090001	2	6	CONTROL	1.56192975000158	28	n/a	1000	0	25.0830159090001
29.0211686530001	3	7	INCORRECTLY	1.80602881400046	21	SURE_INCORRECT	59	0	29.0211686530001
36.0205261280007	3	8	CORRECTLY	1.97704526100097	21	SURE_INCORRECT	7	13	36.0205261280007
40.5046762630009	3	9	INCORRECTLY	2.33139898800073	21	SURE_INCORRECT	68	0	40.5046762630009
47.007670930001	3	10	INCORRECTLY	1.80941088799955	21	SURE_INCORRECT	64	0	47.007670930001
51.0781933080016	3	11	CORRECTLY	1.7267526809992	21	SURE_INCORRECT	6	12	51.0781933080016
56.0091443690017	2	12	CONTROL	1.01011217199994	5	n/a	1000	0	56.0091443690017
61.5192470010006	3	13	INCORRECTLY	2.51283125100053	5	SURE_CORRECT	78	0	61.5192470010006
65.5732437990009	3	14	CORRECTLY	2.0873278300005	5	SURE_CORRECT	16	31	65.5732437990009
69.5776493820013	3	15	CORRECTLY	2.02343091500006	28	MAYBE_CORRECT	14	0	69.5776493820013
75.0215477440015	3	16	CORRECTLY	1.46837949600013	5	SURE_CORRECT	1	3	75.0215477440015
79.0754806570003	3	17	CORRECTLY	1.89201047200004	5	SURE_CORRECT	5	11	79.0754806570003
83.5100663310004	3	18	INCORRECTLY	1.49649145600051	5	SURE_CORRECT	51	0	83.5100663310004
90.0130033100013	3	19	INCORRECTLY	1.69461874399894	5	SURE_CORRECT	47	0	90.0130033100013
94.0669342400015	3	20	INCORRECTLY	2.63632884399885	5	SURE_CORRECT	66	0	94.0669342400015
99.0144820330006	3	21	CORRECTLY	1.74723377000009	5	SURE_CORRECT	10	20	99.0144820330006
103.085026064	3	22	INCORRECTLY	1.51989157500066	5	SURE_CORRECT	48	0	103.085026064
107.072833479	3	23	INCORRECTLY	1.94497039000089	5	SURE_CORRECT	52	0	107.072833479
115.01530721	3	24	INCORRECTLY	1.45293964400116	5	SURE_CORRECT	45	0	115.01530721
119.516121612001	3	25	CORRECTLY	1.28877125299914	5	SURE_CORRECT	9	18	119.516121612001
125.506033726	3	26	INCORRECTLY	1.44347948399991	5	SURE_CORRECT	42	0	125.506033726
131.016159116001	3	27	INCORRECTLY	2.01076108300003	5	SURE_CORRECT	80	0	131.016159116001
137.006150797	3	28	CORRECTLY	1.72653912600072	5	SURE_CORRECT	2	5	137.006150797
142.019820512001	2	29	CONTROL	2.76885000399852	28	n/a	1000	0	142.019820512001
145.081019964	3	30	INCORRECTLY	1.41609362200143	5	SURE_CORRECT	56	0	145.081019964
150.508430420001	3	31	INCORRECTLY	1.43807058200036	5	SURE_CORRECT	43	0	150.508430420001
155.009172314001	3	32	INCORRECTLY	2.00643080999907	5	SURE_CORRECT	58	0	155.009172314001
159.509924220001	3	33	CORRECTLY	2.1734142259993	5	SURE_CORRECT	4	9	159.509924220001
167.022185796	3	34	CORRECTLY	2.0920444479998	5	SURE_CORRECT	13	0	167.022185796
173.508572945	3	35	CORRECTLY	1.75378014800117	5	SURE_CORRECT	11	21	173.508572945
178.50568697	3	36	CORRECTLY	3.89898969100068	5	SURE_CORRECT	15	30	178.50568697
182.576276844	3	37	INCORRECTLY	0.0152025830011553	5	SURE_CORRECT	46	0	182.576276844
188.51660927	2	38	CONTROL	1.67669539000053	28	n/a	1000	0	188.51660927
193.513727880001	2	39	CONTROL	0.937801467000099	28	n/a	1000	0	193.513727880001
198.014465384002	3	40	INCORRECTLY	1.53650178899989	5	SURE_CORRECT	62	0	198.014465384002
203.011697667001	2	41	CONTROL	n/a	n/a	n/a	1000	0	203.011697667001
207.512430319	2	42	CONTROL	1.57816679300049	21	n/a	1000	0	207.512430319
211.020314973	2	43	CONTROL	1.95124324500102	28	n/a	1000	0	211.020314973
218.516055442	3	44	INCORRECTLY	1.4705309810015	5	SURE_CORRECT	49	0	218.516055442
224.009652185001	3	45	CORRECTLY	1.12594416600041	5	SURE_CORRECT	27	47	224.009652185001
229.519734312002	3	46	CORRECTLY	2.06943612599935	28	MAYBE_CORRECT	30	53	229.519734312002
235.013329768	3	47	INCORRECTLY	1.30515445099991	5	SURE_CORRECT	75	0	235.013329768
244.511201837	3	48	CORRECTLY	1.83096333400135	5	SURE_CORRECT	35	58	244.511201837
252.006976546001	3	49	CORRECTLY	2.56134136999935	5	SURE_CORRECT	32	55	252.006976546001
256.060997631001	2	50	CONTROL	n/a	n/a	n/a	1000	0	256.060997631001
259.072520655001	3	51	INCORRECTLY	0.936081796999133	10	MAYBE_INCORRECT	70	0	259.072520655001
267.015031251001	2	52	CONTROL	2.1295002909992	21	n/a	1000	0	267.015031251001
272.525095855	3	53	INCORRECTLY	1.59978810900066	5	SURE_CORRECT	79	0	272.525095855
277.522333053001	3	54	INCORRECTLY	1.44732300000032	28	MAYBE_CORRECT	65	0	277.522333053001
282.006469289001	2	55	CONTROL	1.95707743399907	5	n/a	1000	0	282.006469289001
285.067645885001	3	56	INCORRECTLY	2.31759395599875	5	SURE_CORRECT	53	0	285.067645885001
292.017439453	3	57	INCORRECTLY	1.22586589499952	5	SURE_CORRECT	76	0	292.017439453
296.071372003002	2	58	CONTROL	1.74242224399859	5	n/a	1000	0	296.071372003002
300.026063851001	3	59	INCORRECTLY	2.36193772600018	10	MAYBE_INCORRECT	41	0	300.026063851001
305.519571645002	2	60	CONTROL	2.18309291599871	10	n/a	1000	0	305.519571645002
310.020349628001	3	61	INCORRECTLY	2.81598283200037	5	SURE_CORRECT	63	0	310.020349628001
318.012517705001	3	62	CORRECTLY	1.3678177999991	5	SURE_CORRECT	38	61	318.012517705001
325.011887994	3	63	CORRECTLY	1.17417132500123	5	SURE_CORRECT	24	41	325.011887994
330.008952814002	3	64	CORRECTLY	2.52751761099898	5	SURE_CORRECT	21	37	330.008952814002
335.519114461002	3	65	INCORRECTLY	2.15260073099853	5	SURE_CORRECT	67	0	335.519114461002
341.525627998	3	66	CORRECTLY	1.36010467900087	5	SURE_CORRECT	34	57	341.525627998
346.522868054	3	67	INCORRECTLY	1.87338771400027	5	SURE_CORRECT	60	0	346.522868054
351.023514879002	2	68	CONTROL	n/a	n/a	n/a	1000	0	351.023514879002
355.011327792001	3	69	CORRECTLY	1.17219841500082	5	SURE_CORRECT	22	38	355.011327792001
362.507064394002	3	70	CORRECTLY	1.56175794499904	5	SURE_CORRECT	25	44	362.507064394002
367.024339905001	3	71	INCORRECTLY	1.7374420340002	5	SURE_CORRECT	71	0	367.024339905001
371.078392572001	3	72	INCORRECTLY	3.59320720399955	5	SURE_CORRECT	57	0	371.078392572001
375.512927985001	3	73	CORRECTLY	3.16336758800026	5	SURE_CORRECT	19	35	375.512927985001
381.006503025001	2	74	CONTROL	1.84008253700085	28	n/a	1000	0	381.006503025001
386.020200611001	3	75	INCORRECTLY	2.40118181499929	21	SURE_INCORRECT	74	0	386.020200611001
391.513758163001	2	76	CONTROL	1.72576705500069	10	n/a	1000	0	391.513758163001
395.51813853	3	77	CORRECTLY	2.29405644500002	5	SURE_CORRECT	17	32	395.51813853
401.011669838001	2	78	CONTROL	2.43705659999978	5	n/a	1000	0	401.011669838001
405.016025601	3	79	INCORRECTLY	1.3046100749998	5	SURE_CORRECT	77	0	405.016025601
409.516810111001	2	80	CONTROL	1.41259301999889	10	n/a	1000	0	409.516810111001
415.523290139001	3	81	INCORRECTLY	0.991299657000127	5	SURE_CORRECT	44	0	415.523290139001
421.513226346	3	82	CORRECTLY	2.35936737600059	21	SURE_INCORRECT	40	64	421.513226346
426.01403407	3	83	CORRECTLY	2.04817285900026	21	SURE_INCORRECT	28	48	426.01403407
430.068001080001	3	84	INCORRECTLY	n/a	n/a	n/a	50	0	430.068001080001
437.017654462001	3	85	INCORRECTLY	1.24752163199992	5	SURE_CORRECT	72	0	437.017654462001
443.520646754001	3	86	INCORRECTLY	1.25883710800008	5	SURE_CORRECT	69	0	443.520646754001
447.574581456001	3	87	CORRECTLY	n/a	n/a	n/a	18	34	447.574581456001
452.505578396002	2	88	CONTROL	1.43523302099857	10	n/a	1000	0	452.505578396002
455.583277551001	2	89	CONTROL	1.33080034900013	28	n/a	1000	0	455.583277551001
462.003460510001	3	90	INCORRECTLY	1.23232105500028	5	SURE_CORRECT	61	0	462.003460510001
466.074031208002	2	91	CONTROL	1.53530104399943	21	n/a	1000	0	466.074031208002
470.525122652001	3	92	INCORRECTLY	n/a	n/a	n/a	73	0	470.525122652001
474.579111549001	3	93	CORRECTLY	0.910831753999446	5	SURE_CORRECT	29	52	474.579111549001
479.526626516001	3	94	CORRECTLY	1.03473758099972	5	SURE_CORRECT	20	36	479.526626516001
484.523792162001	2	95	CONTROL	1.54627888799951	10	n/a	1000	0	484.523792162001
489.008006471	3	96	CORRECTLY	3.13494350600013	5	SURE_CORRECT	31	54	489.008006471
493.078497015002	3	97	CORRECTLY	1.81372118199943	5	SURE_CORRECT	23	40	493.078497015002
498.009522481001	3	98	CORRECTLY	0.909675787999731	5	SURE_CORRECT	37	60	498.009522481001
502.510282290001	3	99	CORRECTLY	0.991522311000153	5	SURE_CORRECT	36	59	502.510282290001
506.564251363001	2	100	CONTROL	1.97344272599912	21	n/a	1000	0	506.564251363001
510.005984492002	3	101	INCORRECTLY	1.14565695099918	5	SURE_CORRECT	54	0	510.005984492002
514.076533382	3	102	CORRECTLY	0.772684071000185	5	SURE_CORRECT	39	63	514.076533382
518.080857422001	3	103	CORRECTLY	0.679831605999425	5	SURE_CORRECT	33	56	518.080857422001
522.06864309	3	104	CORRECTLY	0.677570849000404	5	SURE_CORRECT	26	45	522.06864309
