onset	duration	trial_number	trial_type	trial_type_coded	reaction_time	expected_response_coded	response	response_coded	accuracy	accuracy_scrambled	accuracy_task	rec_codes_during_enc	onset_probe	onset_noTriggerAdjust	onset_probe_noTriggerAdjust
0.013190881499213	2	1	CONTROL	1	1.21393110250074	1	LEFT	5	1	1	0	0	0.0463596844992935	0.013190881499213	0.0463596844992935
4.52269317044102	2	2	CONTROL	1	1.20072537655869	2	RIGHT	28	1	1	0	0	4.53936869044128	4.52269317044102	4.53936869044128
11.5191563904991	4	3	TASK	2	2.20557889150132	1	LEFT	5	1	0	1	16	12.513928573499	11.5191563904991	12.513928573499
19.5103606054413	2	4	CONTROL	1	1.12427154950092	1	LEFT	5	1	1	0	0	19.526872018499	19.5103606054413	19.526872018499
22.0469542284991	4	5	TASK	2	1.88390654250088	2	RIGHT	28	1	0	1	28	23.0085305784992	22.0469542284991	23.0085305784992
38.5267059474413	4	6	TASK	2	1.92124562846175	1	LEFT	5	1	0	1	1	39.5048892165382	38.5267059474413	39.5048892165382
49.5186353013837	2	7	CONTROL	1	0.874603622501127	2	RIGHT	28	1	1	0	0	49.535286610499	49.5186353013837	49.535286610499
56.515133623499	2	8	CONTROL	1	0.706068126616174	2	RIGHT	28	1	1	0	0	56.5316739823838	56.515133623499	56.5316739823838
66.015022983499	4	9	TASK	2	3.03273984246198	2	RIGHT	28	1	0	1	33	67.009819720538	66.015022983499	67.009819720538
70.5245233914993	2	10	CONTROL	1	0.716844597558975	2	RIGHT	28	1	1	0	0	70.541146869441	70.5245233914993	70.541146869441
76.0122611594993	4	11	TASK	2	2.679922715462	2	RIGHT	28	1	0	1	17	77.0070698605382	76.0122611594993	77.0070698605382
81.5164916603835	4	12	TASK	2	2.78544916150076	2	RIGHT	28	1	0	1	11	82.5112991534993	81.5164916603835	82.5112991534993
92.508507832441	4	13	TASK	2	1.63347970561608	1	LEFT	5	1	0	1	8	93.5199049133839	92.508507832441	93.5199049133839
98.0128143464412	2	14	CONTROL	1	0.784748215501168	1	LEFT	5	1	1	0	0	98.0294470974991	98.0128143464412	98.0294470974991
104.511935650499	4	15	TASK	2	1.93123572755894	1	LEFT	5	1	0	1	5	105.506609481441	104.511935650499	105.506609481441
109.021440665441	2	16	CONTROL	1	1.05684079344292	1	LEFT	5	1	1	0	0	109.038062352557	109.021440665441	109.038062352557
112.022285638499	2	17	CONTROL	1	0.784379408616587	2	RIGHT	28	1	1	0	0	112.038796378384	112.022285638499	112.038796378384
118.521284891384	4	18	TASK	2	1.84674533355883	2	RIGHT	28	1	0	1	25	119.516094519441	118.521284891384	119.516094519441
125.020321288499	2	19	CONTROL	1	0.713683691558799	1	LEFT	5	1	1	0	0	125.036983141441	125.020321288499	125.036983141441
129.015915052499	4	20	TASK	2	1.75422142355865	1	LEFT	5	1	0	1	21	130.010679145441	129.015915052499	130.010679145441
135.017638336384	4	21	TASK	2	1.94038000155888	2	RIGHT	28	1	0	1	35	136.012350721441	135.017638336384	136.012350721441
151.016559868499	4	22	TASK	2	2.37844034946193	1	LEFT	5	1	0	1	4	152.011385386538	151.016559868499	152.011385386538
155.526035290384	4	23	TASK	2	2.19412201244313	2	RIGHT	28	1	0	1	34	156.520949343557	155.526035290384	156.520949343557
161.013774888441	2	24	CONTROL	1	1.22935855361629	2	RIGHT	28	1	1	0	0	161.030371926384	161.013774888441	161.030371926384
165.009403622499	2	25	CONTROL	1	0.902364651501102	1	LEFT	5	1	1	0	0	165.026029302499	165.009403622499	165.026029302499
174.525834382441	2	26	CONTROL	1	0.815660906500852	2	RIGHT	28	1	1	0	0	174.542412634499	174.525834382441	174.542412634499
179.516138994384	2	27	CONTROL	1	0.767361650500789	2	RIGHT	28	1	1	0	0	179.532793077499	179.516138994384	179.532793077499
182.052781153499	4	28	TASK	2	2.49704354555888	2	RIGHT	28	1	0	1	15	183.014435871441	182.052781153499	183.014435871441
189.016036148384	2	29	CONTROL	1	0.812159209616766	2	RIGHT	28	1	1	0	0	189.032627715384	189.016036148384	189.032627715384
193.011672183499	4	30	TASK	2	1.853235436462	2	RIGHT	28	1	0	1	36	194.006506613538	193.011672183499	194.006506613538
202.014144178499	4	31	TASK	2	2.98335655755909	2	RIGHT	28	1	0	1	14	203.008967137441	202.014144178499	203.008967137441
209.507915612384	4	32	TASK	2	2.28018494050093	1	LEFT	5	1	0	1	77	210.519351525499	209.507915612384	210.519351525499
216.007006589499	2	33	CONTROL	1	0.808321144500951	2	RIGHT	28	1	1	0	0	216.023630486499	216.007006589499	216.023630486499
220.516522526441	4	34	TASK	2	1.42858412750093	1	LEFT	5	1	0	1	87	221.511285053499	220.516522526441	221.511285053499
226.020802232441	4	35	TASK	2	1.69163779555902	1	LEFT	5	1	0	1	73	227.015617594441	226.020802232441	227.015617594441
240.013677632499	4	36	TASK	2	1.24283534040433	1	LEFT	5	1	0	1	94	241.008567706596	240.013677632499	241.008567706596
254.006500256441	4	37	TASK	2	1.94744501309697	1	LEFT	5	1	0	1	64	255.017862323903	254.006500256441	255.017862323903
261.516903352441	4	38	TASK	2	2.26356970450115	2	RIGHT	28	1	0	1	69	262.511657629499	261.516903352441	262.511657629499
280.019312144441	2	39	CONTROL	1	0.759301196500928	1	LEFT	5	1	1	0	0	280.035875695499	280.019312144441	280.035875695499
283.020167473499	4	40	TASK	2	2.43535010050118	2	RIGHT	28	1	0	1	97	284.014926953499	283.020167473499	284.014926953499
292.022655453499	4	41	TASK	2	2.26444455861656	1	LEFT	5	1	0	1	63	293.017343759383	292.022655453499	293.017343759383
297.526897491441	2	42	CONTROL	1	n/a	1	n/a	n/a	0	0	0	0	297.543498489384	297.526897491441	297.543498489384
305.518166048499	2	43	CONTROL	1	0.719423104866109	1	LEFT	5	1	1	0	0	305.534769462134	305.518166048499	305.534769462134
316.526699871441	4	44	TASK	2	1.887856446559	1	LEFT	5	1	0	1	70	317.521506431441	316.526699871441	317.521506431441
324.020523392499	4	45	TASK	2	n/a	1	n/a	n/a	0	0	0	104	325.015286807499	324.020523392499	325.015286807499
331.016903094441	2	46	CONTROL	1	0.691930907866208	1	LEFT	5	1	1	0	0	331.033591678134	331.016903094441	331.033591678134
336.504718376538	4	47	TASK	2	1.81509882155888	2	RIGHT	28	1	0	1	45	337.516000067441	336.504718376538	337.516000067441
347.015809481441	4	48	TASK	2	2.32157968303909	2	RIGHT	28	1	0	1	83	348.010653786961	347.015809481441	348.010653786961
358.024432402441	2	49	CONTROL	1	0.582822687866155	1	LEFT	5	1	1	0	0	358.041116415134	358.024432402441	358.041116415134
363.014796191499	2	50	CONTROL	1	0.754469421501199	2	RIGHT	28	1	1	0	0	363.031406710499	363.014796191499	363.031406710499
370.508568106499	2	51	CONTROL	1	0.611077772501176	2	RIGHT	28	1	1	0	0	370.525147236499	370.508568106499	370.525147236499
376.526795707499	4	52	TASK	2	1.77951908732803	2	RIGHT	28	1	0	1	93	377.505069104672	376.526795707499	377.505069104672
383.506771307307	4	53	TASK	2	1.75890439250088	1	LEFT	5	1	0	1	46	384.518029863499	383.506771307307	384.518029863499
390.519699950499	4	54	TASK	2	1.52272945055893	2	RIGHT	28	1	0	1	96	391.514473583441	390.519699950499	391.514473583441
405.009927007499	4	55	TASK	2	1.19290227550118	2	LEFT	5	0	0	0	49	406.021269827499	405.009927007499	406.021269827499
412.006350902441	4	56	TASK	2	1.54111483550105	2	RIGHT	28	1	0	1	103	413.017663568499	412.006350902441	413.017663568499
418.50544133425	4	57	TASK	2	1.71551851250115	2	RIGHT	28	1	0	1	66	419.516655540499	418.50544133425	419.516655540499
429.513915177499	4	58	TASK	2	2.14017079146197	2	RIGHT	28	1	0	1	48	430.508865050538	429.513915177499	430.508865050538
443.523352297499	4	59	TASK	2	1.07331918750106	2	RIGHT	28	1	0	1	99	444.518115762499	443.523352297499	444.518115762499
448.032921348384	4	60	TASK	2	2.48684940055909	1	LEFT	5	1	0	1	98	449.011066054441	448.032921348384	449.011066054441
453.023228827499	4	61	TASK	2	2.09272389950092	2	RIGHT	28	1	0	1	62	454.017972745499	453.023228827499	454.017972745499
459.522258001384	2	62	CONTROL	1	1.08762080955921	1	LEFT	5	1	1	0	0	459.538847598441	459.522258001384	459.538847598441
465.010006946499	4	63	TASK	2	1.6165214747507	1	LEFT	5	1	0	1	102	466.021449694249	465.010006946499	466.021449694249
473.515139827499	4	64	TASK	2	0.921898452500955	2	RIGHT	28	1	0	1	82	474.509923723499	473.515139827499	474.509923723499
