participant_id	ant_nc_mn_ac	ant_ii_std_rt	ant_mean_rtinc	ant_cc_mn_rt	ant_in_trials	ant_ii_std_ac	ant_ic_std_rt	ant_ic_trials	ant_sd_rtcon	ant_mean_accomierrcon	ant_conflict_rt_effect	ant_nn_trials	ant_cn_std_ac	ant_ni_std_ac	ant_sd_rtinc	ant_mean_accomierrinc	ant_in_std_ac	ant_in_std_rt	ant_cc_mn_ac	ant_ci_trials	ant_cn_std_rt	ant_conflict_acc_effect	ant_ci_std_rt	ant_ii_trials	ant_cn_mn_rt	ant_mean_rtcon	ant_nc_trials	ant_median_accinc	ant_ci_mn_ac	ant_median_accneu	ant_median_rtneu	ant_ni_std_rt	ant_in_mn_rt	ant_cc_trials	ant_mean_rtneu	ant_nc_std_rt	ant_nn_std_ac	ant_cn_trials	ant_ic_mn_rt	ant_median_acccon	ant_ic_mn_ac	ant_nn_mn_ac	ant_cc_std_rt	ant_median_rtcon	ant_ni_mn_ac	ant_mean_acccomerrinc	ant_median_rtinc	ant_in_mn_ac	ant_sd_rtneu	ant_ci_std_ac	ant_cc_std_ac	ant_ic_std_ac	ant_ci_mn_rt	ant_ni_trials	ant_cn_mn_ac	ant_nn_mn_rt	ant_nn_std_rt	ant_mean_acccomerrneu	ant_ii_mn_rt	ant_ni_mn_rt	ant_ii_mn_ac	ant_nc_std_ac	ant_nc_mn_rt	ant_mean_accomierrneu	ant_mean_acccomerrcon
sub-10159	1	53.604815	696.92	623.2857143	19	0	90.3944896	19	83.0587435	n/a	101.52	9	0	0	104.8743591	n/a	0	93.3810655	1	22	96.0762718	0	111.4439369	7	611.375	595.4	18	1	1	1	576.5	99.2935043	601.3684211	7	593.46	76.4028068	0	16	599.0526316	1	1	1	96.6173109	576	1	0.9791667	685.5	1	93.7463664	0	0	0	705.3181818	16	1	559.2222222	93.2480265	1	697.1428571	701.5	1	0	587.7222222	n/a	1
sub-10171	1	62.6686613	573.58	454.9	19	0	56.466952	16	51.4323904	n/a	101.75	6	0	0	97.9893249	n/a	0	57.2501947	1	19	99.0587158	0	83.8843537	9	485.6875	471.83	20	1	1	1	464	114.9120575	481.8421053	10	474.9	54.2334137	0	16	472.125	1	1	1	42.6261526	467	1	1	565.5	1	70.9051628	0	0	0	566.8421053	15	1	453.3333333	44.4822062	1	568.8888889	607.9333333	1	0	480	n/a	1
sub-10189	1	147.8115354	480.1	480.375	11	0	101.6839131	11	90.6764081	n/a	13.31	10	0	0	98.3634683	n/a	0	75.0030302	1	11	69.6491206	0	99.6170851	4	479	466.79	5	1	1	1	443.5	98.8971327	460.6363636	8	463.25	74.3559009	0	11	496.2727273	1	1	1	74.3446367	440.5	1	0.75	476	1	85.5190659	0	0	0	480.8181818	14	1	461.5	119.1024302	0.875	584.75	501.2142857	1	0	433.6	n/a	0.7916667
sub-10193	1	76.5113204	522.92	486.125	14	0	108.3496832	14	87.5289618	n/a	36.92	9	0	0	83.5766519	n/a	0	58.6065293	1	14	57.1838116	0	68.9274184	8	452.1052632	486	19	1	1	1	471	67.0757148	477.4285714	8	474.08	71.6387951	0	19	537.5	1	1	1	67.1659725	472	1	0.875	528	1	63.376898	0	0	0	543.7142857	12	1	469.7777778	44.4234673	0.9791667	549.625	507.6666667	1	0	448.6842105	n/a	1
sub-10206	1	65.812866	557.52	538.8888889	17	0	78.0868672	18	91.5160118	n/a	48.25	7	0	0	86.1265742	n/a	0	70.1300263	1	19	67.1020217	0	95.0925065	4	456.2857143	509.27	17	1	1	1	488.5	84.3342708	509.2941176	9	491.4	91.9079223	0	14	509.5	1	1	1	90.1310774	495	1	0.8958333	557.5	1	72.7717912	0	0	0	561.1578947	13	1	485.5714286	87.5040135	0.9583333	570	561.4615385	1	0	483.2352941	n/a	0.9791667
sub-10217	1	68.0636957	518.38	453.2857143	19	0	103.879455	18	87.3642387	n/a	82.23	7	0	0	99.9186105	n/a	0	82.4924593	1	19	86.9817462	0	104.932922	6	436.1428571	436.15	16	1	1	1	433	109.1691107	465.3157895	7	452.4	94.5117056	0	14	437.3333333	1	1	1	28.9177816	415	1	0.9791667	506	1	77.8008203	0	0	0	521.8421053	19	1	446.2857143	76.7544011	0.9791667	530.3333333	507.6842105	1	0	444.0625	n/a	0.9791667
sub-10225	1	115.9383303	575.02	490.3	20	0	80.7561291	15	84.2716579	n/a	92.25	8	0	0	102.1399727	n/a	0	75.3064616	1	13	42.1684873	0	94.4108588	8	502.7857143	482.77	13	1	1	1	503	76.6658178	478.7	10	492.31	108.1130107	0	14	479.5333333	1	1	1	92.0266266	468	1	0.9583333	567.5	1	69.5988983	0	0	0	620.9230769	21	1	493.5	81.228074	0.9791667	578.375	564.3809524	1	0	479.3846154	n/a	1
sub-10227	1	133.7807908	684.15	588.9166667	19	0	69.3980925	15	72.3380038	n/a	83.13	7	0	0	104.2541881	n/a	0	85.3355263	1	14	71.2988721	0	77.0658346	5	609.9375	601.02	15	1	1	1	595	100.7001915	578.5263158	12	600.63	65.102849	0	16	620.6666667	1	1	1	83.5022682	589	1	1	673	1	82.8473667	0	0	0	633.2857143	21	1	588.8571429	92.2937856	1	705.6	709.8571429	1	0	592.3333333	n/a	1
sub-10228	1	36.7491497	643.1	625.7272727	14	0	100.4369301	13	156.9361346	n/a	89.77	9	0	0	160.8420977	n/a	0	92.8959006	1	11	98.1336957	0	81.4028143	8	511.8888889	553.33	15	1	1	1	535.5	207.8127515	527.4285714	11	540.73	79.3625196	0	18	533.9230769	1	1	1	277.7708015	527.5	1	0.875	606.5	1	101.3711822	0	0	0	603.7272727	17	1	588.3333333	115.4426264	1	630.25	726.5294118	1	0	514.5333333	n/a	0.9791667
sub-10235	1	47.4125762	568.21	531.6666667	17	0	75.237402	15	98.1178528	n/a	43.9	5	0	0	92.0845953	n/a	0	65.1462156	1	13	63.6229642	0	78.8040413	7	487.25	524.31	19	1	1	1	472	81.9114127	494.1764706	6	487.58	88.1157532	0	20	491.3333333	1	1	1	80.8768611	516.5	1	0.875	583.5	1	61.6941093	0	0	0	568.9230769	19	1	458.6	33.9160729	1	574.5714286	592.5789474	1	0	529.0526316	n/a	1
sub-10249	1	63.266895	711.44	701.8	14	0	267.0386282	20	246.232286	n/a	51.4	11	0	0	134.6143279	n/a	0	153.5802221	1	20	110.2956588	0	160.2921346	5	634.4117647	660.04	17	1	1	1	608	64.9827393	635.5	5	636.45	240.0833495	0	17	677.55	1	1	1	151.2752458	598.5	1	0.9791667	705.5	1	154.3730844	0	0	0	707.1	13	1	630.6363636	102.4570864	1	656.8	716.6153846	1	0	648.5294118	n/a	1
sub-10269	1	90.6705181	610.98	556.6666667	15	0	72.2467345	19	82.3407123	n/a	33.56	9	0	0	84.9839759	n/a	0	87.4617195	1	20	65.3906249	0	84.999613	7	575.0588235	577.42	18	1	1	1	583.5	79.8625536	599.5333333	6	576.06	99.0170811	0	17	586.5789474	1	1	1	38.5157976	578	1	0.9583333	617	1	82.1530503	0	0	0	616.25	14	1	541.3333333	82.8975271	1	594.8571429	626.7857143	1	0	565.1666667	n/a	1
sub-10271	1	46.1207654	554.85	503.4444444	20	0	89.6711942	13	76.684661	n/a	36.72	9	0	0	58.6598524	n/a	0	70.0648384	1	17	68.0930736	0	58.4830292	8	538	518.13	17	1	1	1	519	69.0711891	495.85	9	515.44	89.4034149	0	13	544.3846154	1	1	1	48.3169512	503	1	1	565	1	73.3667286	0	0	0	562.5294118	16	1	516.2222222	94.2679396	1	556.375	538.1875	1	0	505.2941176	n/a	1
sub-10273	1	79.3860914	577.94	493.25	13	0	85.6724007	19	74.5182994	n/a	58.73	8	0	0	71.8134126	n/a	0	86.1057043	1	15	68.1775288	0	55.1334312	12	548.2105263	519.21	15	1	1	1	541	59.3655178	528.2307692	8	540.77	72.6729137	0	19	533.2631579	1	1	1	38.0479021	513.5	1	0.9791667	576	1	73.6397902	0	0	0	578.5333333	18	1	517.125	90.1212477	1	565.8333333	590.5	1	0	518.0666667	n/a	1
sub-10274	1	200.7863114	634.5	558.7142857	19	0	73.8677166	14	87.5262651	n/a	100.06	8	0	0	145.0003668	n/a	0	97.6540618	1	19	71.3963667	0	140.3216022	7	485.5	534.44	22	1	1	1	486	115.6291201	523.2631579	7	501.06	75.8949633	0	18	554.8571429	1	1	1	97.1797549	519.5	1	0.9791667	638	1	83.3624249	0	0	0	619.5263158	14	1	519.125	52.1301599	0.9791667	763.1428571	601.3571429	1	0	507.9545455	n/a	1
sub-10280	1	77.4661216	638.5	496.8888889	13	0	75.8304029	17	64.3097247	n/a	132.94	12	0	0	95.1033033	n/a	0	51.6374193	1	17	64.2321158	0	76.9752634	9	497	505.56	19	1	1	1	493.5	69.541539	497.6153846	9	504.54	61.9717442	0	18	524	1	1	1	54.1097136	491.5	1	0.9375	644	1	59.4356288	0	0	0	648.2352941	13	1	514.6666667	53.4710344	1	666.3333333	625.2307692	1	0	493.0526316	n/a	1
sub-10290	1	70.321879	578.15	526.8	16	0	76.172611	15	76.0094129	n/a	96.77	8	0	0	78.1564143	n/a	0	51.5269751	1	17	67.8946663	0	52.0288382	10	472.4	481.38	15	1	1	1	460	81.4027612	472.6875	5	473.67	47.4709936	0	15	505.1333333	1	1	1	124.936784	455	1	0.9375	583.5	1	64.9537752	0	0	0	595	15	1	453.75	56.840001	0.9583333	593.5	591.5333333	1	0	435.7333333	n/a	1
sub-10292	1	95.5343273	728.44	778.5	19	0	102.868959	12	150.1924519	n/a	74.63	6	0	0	144.4799782	n/a	0	130.1658636	1	12	125.1443798	0	134.4725949	13	592.2	653.81	20	1	1	1	608	174.3201154	629.5263158	8	628.44	130.5388025	0	20	617.75	1	1	1	239.5442101	612	1	1	714	1	129.660589	0	0	0	740.8333333	20	1	690.5	133.306789	1	663.8461538	764.85	1	0	638.8	n/a	1
sub-10299	1	50.7699058	528.67	475.0714286	19	0	85.4040923	13	73.6963262	n/a	64.82	7	0	0	115.9250186	n/a	0	75.6503963	1	18	64.8483438	0	80.5475745	4	453.1538462	463.85	19	1	1	1	467	132.1170837	477.7368421	14	466.69	82.1043054	0	13	451.7692308	1	1	1	51.314212	460.5	1	0.9166667	529	1	76.5075872	0	0	0	524.5	15	1	476.4285714	56.7504982	0.9791667	565.25	524.2666667	1	0	460.6842105	n/a	1
sub-10304	1	50.8748464	535.46	459.7142857	17	0	50.5649041	15	60.1798685	n/a	70.31	11	0	0	99.0933277	n/a	0	37.5297921	1	20	135.654893	0	61.9115456	4	499.375	465.15	15	1	1	1	450.5	125.4471699	445.1176471	7	464.96	49.1811036	0	16	454.3333333	1	1	1	40.2521812	456	1	0.8333333	534	1	92.6333331	0	0	0	555.25	12	1	436.9090909	43.9669297	1	538.25	578.9166667	1	0	467.0666667	n/a	1
sub-10316	1	117.5512046	569.23	483.6666667	14	0	88.0364601	18	89.3023567	n/a	50.17	6	0	0	95.4849302	n/a	0	74.6551044	1	20	89.1865197	0	89.667808	8	505.1176471	519.06	20	1	1	1	500	85.4023632	493	9	505.46	89.4976624	0	17	543.2222222	1	1	1	77.9358711	507.5	1	0.9583333	563	1	77.7352184	0	0	0	594	11	1	490.8333333	44.8081094	1	592	531.8181818	1	0	520.4	n/a	1
sub-10321	1	64.0839794	600.33	521.5384615	16	0	71.7687066	14	68.202959	n/a	80.45	10	0	0	80.9455644	n/a	0	41.6875281	1	12	100.0347467	0	51.0801509	13	506.7857143	519.88	14	1	1	1	555	94.7105843	571.125	13	540.21	75.4102698	0	14	534.8571429	1	1	1	69.0779938	511	1	0.9583333	594	1	83.8537121	0	0	0	594.5	18	1	524.6	91.4563648	1	614.6153846	612.7222222	1	0	504.6428571	n/a	1
sub-10325	1	45.927842	563.88	462.0714286	18	0	85.2822764	15	108.675486	n/a	82.86	7	0	0	58.3210575	n/a	0	55.4237685	1	11	50.4006011	0	63.0987682	6	479.2941176	481.02	14	1	1	1	458	40.8803819	471.5	14	473.02	171.4842126	0	17	499.7333333	1	1	1	63.6184108	453.5	1	1	555.5	1	49.8335483	0	0	0	555.3636364	22	1	464.4285714	47.9612939	1	567.8333333	552.4090909	1	0	483.7142857	n/a	1
sub-10329	1	70.6455943	511.1	493.375	18	0	63.2412527	14	63.3782829	n/a	66.14	10	0	0	76.9695269	n/a	0	54.2558994	1	20	82.4010896	0	66.3181328	6	484.6428571	444.96	19	1	1	1	442	85.9272629	447.0555556	8	455.13	56.2233433	0	14	436.0714286	1	1	1	79.8264859	435	1	0.9375	527.5	1	68.5461873	0	0	0	513.1	14	1	430.2	65.5621842	1	522	540.5714286	1	0	435.2105263	n/a	1
sub-10339	1	128.6256843	750.63	609.9	19	0	115.9655121	14	85.3712143	n/a	139.36	4	0	0	130.2001119	n/a	0	124.0386895	1	12	133.3291008	0	141.2524872	6	663.2631579	611.27	18	1	1	1	631.5	136.2721192	630.4736842	10	650.83	68.5852601	0	19	608	1	1	1	76.3449045	617.5	1	1	727.5	1	124.106566	0	0	0	769.4166667	21	1	691.25	171.470843	0.9791667	686.8333333	750.2380952	1	0	621.9444444	n/a	1
sub-10340	1	64.5600496	631.94	523.75	12	0	78.4942031	23	68.7946373	n/a	111.19	8	0	0	90.0974428	n/a	0	102.3835258	1	22	71.7512554	0	52.1274039	6	508.3529412	520.75	15	1	1	1	515	97.8042262	572.25	4	534.35	61.5356652	0	17	535.3913043	1	1	1	65.9917924	518	1	0.9583333	638.5	1	86.368456	0	0	0	640.8636364	13	1	564.625	99.6593304	1	627	643	1	0	500.2666667	n/a	1
sub-10345	1	59.096685	511.17	432.75	24	0	50.6822893	9	50.6273367	n/a	63.19	10	0	0	67.3123343	n/a	0	57.327419	1	18	63.354633	0	82.6520386	11	481.8571429	447.98	15	1	1	1	456	59.0564702	474.5416667	16	472.1	54.009523	0	7	464.2222222	1	1	1	47.3856518	442	1	0.9791667	509.5	1	60.4177794	0	0	0	526.7777778	16	1	453	49.087224	1	509.7272727	498.25	1	0	438.8	n/a	1
sub-10347	1	80.3527639	532.77	445.9090909	17	0	64.3864974	20	65.2060428	n/a	65.23	11	0	0	62.6928479	n/a	0	64.2023456	1	18	48.210476	0	59.1170325	6	464.625	467.54	13	1	1	1	466	56.3956885	477.2352941	11	471	69.7477139	0	16	473.6	1	1	1	67.2539286	456.5	1	0.9791667	535	1	58.9644682	0	0	0	539.6666667	19	1	453.3636364	65.2966657	0.9791667	553.8333333	526.8421053	1	0	475.9230769	n/a	1
sub-10356	1	48.3293986	680.65	641.8	15	0	110.0840254	17	123.240978	n/a	70.61	9	0	0	79.3691857	n/a	0	123.4008953	1	21	73.9985206	0	86.4695928	13	611.3888889	610.04	22	1	1	1	604	92.3104446	625.9333333	5	616.98	139.569716	0	18	586.3529412	1	1	1	83.6791491	587.5	1	1	681.5	1	93.3286323	0	0	0	680.2380952	11	1	603.2222222	61.7976087	1	694.6923077	662.7272727	1	0	621.9090909	n/a	1
sub-10361	1	30.7067543	620.35	529.125	15	0	66.7943076	19	61.9412757	n/a	83.81	7	0	0	46.4503806	n/a	0	141.693062	1	13	67.9158443	0	47.2672435	7	548.1904762	536.54	16	1	1	1	553	52.4449335	572.2666667	8	567.33	49.114789	0	21	541.4210526	1	1	1	73.0878874	532	1	1	627	1	102.5129641	0	0	0	618.2307692	20	1	603.1428571	122.674948	1	631.2857143	606.55	1	0	527.5625	n/a	1
sub-10365	1	184.2073107	530.9	461.8333333	12	0	79.9253124	18	76.6528482	n/a	50.38	13	0	0	105.471432	n/a	0	74.9296134	1	19	58.351725	0	91.6259878	3	450.0666667	480.52	16	1	1	1	485	65.9758335	510.9166667	6	487.48	74.4739048	0	15	482.9444444	1	1	1	96.0237818	476	1	0.7916667	549.5	1	69.7094241	0	0	0	565.8947368	12	1	492.5384615	64.7168389	1	533.3333333	554.5833333	1	0	462.3125	n/a	1
sub-10376	1	72.0370275	563.42	466.5714286	18	0	35.9747665	17	59.793524	n/a	56.15	5	0	0	61.9054988	n/a	0	38.9482647	1	18	25.0502791	0	31.6832774	3	505.8571429	507.27	16	1	1	1	505	71.258099	505.5555556	7	517.56	77.6958815	0	14	508.0588235	1	1	1	26.8195025	501	1	1	556	1	59.3897714	0	0	0	549.7777778	16	1	516.4	77.8350821	0.9791667	545.6666667	572.375	1	0	516.375	n/a	0.9791667
sub-10377	1	95.2511301	622.48	507	12	0	133.8847055	18	105.4305509	n/a	75.1	10	0	0	104.1467846	n/a	0	82.2991587	1	16	80.9968878	0	82.0218467	9	530.6875	547.38	16	1	1	1	539.5	108.8283051	573.3333333	6	540.17	87.6964224	0	16	569.0555556	1	1	1	61.5727212	541.5	1	0.9583333	634	1	76.1407804	0	0	0	656.875	15	1	516.4	54.0497713	0.9166667	641.5555556	590.2	1	0	537.4375	n/a	0.9791667
sub-10388	1	42.2082748	608.15	537.1111111	19	0	47.4958371	11	41.1406459	n/a	67	6	0	0	72.9152786	n/a	0	49.0366852	1	16	38.3995614	0	85.5990411	14	547	541.15	25	1	1	1	548.5	75.0440164	555.5263158	9	549.94	43.7718707	0	20	537.6363636	1	1	1	16.2745541	538	1	0.9791667	605.5	1	46.4228512	0	0	0	611.4375	14	1	526.6666667	45.0185147	1	612	597.7142857	1	0	543.68	n/a	1
sub-10428	1	51.7667847	506.38	391.625	13	0	58.3472742	17	58.4049472	n/a	83.98	5	0	0	78.0536163	n/a	0	58.2148981	1	13	71.2799337	0	79.0632658	5	430.25	422.4	16	1	1	1	408	57.9050948	416.8461538	8	424.56	55.1225529	0	20	428.8235294	1	1	1	68.1844924	423.5	1	0.875	523	1	60.8615122	0	0	0	528	16	1	419.2	41.1302808	1	516.4	537.25	1	0	422.3125	n/a	1
sub-10429	1	82.4771253	735.1	682.5	14	0	140.4575439	19	145.608504	n/a	118.79	6	0	0	143.2220772	n/a	0	84.0150431	1	18	141.7911564	0	135.4161946	7	639.5555556	616.31	16	1	1	1	609	114.3788609	570.2857143	8	617.79	167.3654186	0	18	614.8947368	1	1	1	100.9087282	592.5	1	0.9791667	726	1	131.2883716	0	0	0	725.6111111	15	1	680.1666667	167.7705775	0.9791667	746.1428571	725.3333333	1	0	601.625	n/a	0.9791667
sub-10438	1	39.2852814	524.77	409.3846154	16	0	31.5826297	16	52.5500732	n/a	90.12	9	0	0	69.1945268	n/a	0	63.8858357	1	11	53.9996528	0	67.6196582	7	473.3125	434.65	13	1	1	1	453.5	55.9663119	452.75	13	461.71	46.5466405	0	16	431.5625	1	1	1	48.5721773	428	1	0.875	533	1	54.3048755	0	0	0	531.2727273	19	1	442.8888889	26.0837327	1	537	540.6842105	1	0	440.6153846	n/a	1
sub-10440	1	106.1223993	596.19	493	18	0	86.045119	16	76.5525708	n/a	102.48	11	0	0	90.2499263	n/a	0	96.3141137	1	18	99.8565638	0	90.2858207	11	504	493.71	19	1	1	1	455.5	70.5971848	497.0555556	7	492.79	80.5476503	0	16	523.8125	1	1	1	44.5869936	482.5	1	0.9791667	588	1	95.3753968	0	0	0	623	16	1	460.7272727	55.9894471	1	581.1818182	571.6875	1	0	475.5789474	n/a	1
sub-10448	1	107.0293833	573.21	473	16	0	75.5382629	16	72.9729347	n/a	73.02	11	0	0	87.432152	n/a	0	62.3962806	1	20	68.9526965	0	75.3580052	10	511.8461538	500.19	17	1	1	1	494	68.0540672	503.6875	9	500.73	66.819225	0	13	520.8125	1	1	1	74.9899993	501.5	1	0.9375	568	1	64.580064	0	0	0	583.75	12	1	476	72.0485947	1	597.8	577.0833333	1	0	494.9411765	n/a	1
sub-10455	1	68.6819562	557.15	478.8	18	0	61.7517696	18	69.8849993	n/a	103.11	10	0	0	73.1463091	n/a	0	117.6248051	1	17	58.3636384	0	65.5058372	10	445.2	454.04	14	1	1	1	449.5	84.9339613	495.7777778	10	465.15	65.3934836	0	15	440.8888889	1	1	1	89.066517	448.5	1	1	553	1	84.9137208	0	0	0	561.5294118	19	1	442.7	43.9470641	1	565.1	547	1	0	440	n/a	1
sub-10460	1	85.5486816	680.19	568.3	15	0	113.9796589	14	113.4201065	n/a	88.27	7	0	0	102.5788034	n/a	0	48.4662868	1	10	107.7565187	0	157.2215705	13	574.0555556	591.92	16	1	1	1	543.5	76.1867895	538.1333333	10	572.02	133.8005979	0	18	595.1428571	1	1	1	110.6908106	568	1	0.9791667	678.5	1	97.1534188	0	0	0	690.2	19	1	596.5714286	90.3066205	0.9791667	644.9230769	714.7368421	1	0	602.25	n/a	1
sub-10471	1	81.4162828	734.52	598.6666667	12	0	86.959435	25	83.1184721	n/a	117.04	9	0	0	122.9381421	n/a	0	89.7469507	1	14	71.1892484	0	161.0286474	9	620	617.48	12	1	1	1	615.5	104.2629126	608.8333333	9	614.79	64.9535965	0	23	633.88	1	1	1	98.7205652	609	1	1	719	1	82.392666	0	0	0	776.9285714	23	1	583.7777778	87.0068644	1	675.1111111	740.8695652	1	0	596.6666667	n/a	1
sub-10478	1	89.8314891	592.74	549.9090909	16	0	109.1217951	17	83.2370685	n/a	59.36	5	0	0	137.9432106	n/a	0	112.2477728	1	12	60.0596682	0	76.9597986	8	511.9473684	533.38	15	1	1	1	514.5	121.6198997	559.6875	11	526.94	67.4681583	0	19	548.2352941	1	1	1	58.3051534	523.5	1	0.9574468	563	1	82.0496493	0	0	0	545.9166667	21	1	542	49.9149276	1	582.375	622	1	0	497.6666667	n/a	1
sub-10487	1	52.7891696	524.1	502.75	17	0	43.3240186	17	55.0018335	n/a	51.2	9	0	0	61.4343585	n/a	0	36.7255321	1	13	58.8493468	0	74.8959963	8	467.3684211	472.9	16	1	1	1	454	63.9674259	448.4705882	8	459.46	47.52644	0	19	481.2941176	1	1	1	65.4080598	479	1	1	516.5	1	46.0106178	0	0	0	511.0769231	20	1	468.4444444	34.3078384	1	510.875	531.6	1	0	442.6875	n/a	1
sub-10492	1	116.0719451	652.35	506.2222222	19	0	82.8918975	16	93.385096	n/a	118.58	10	0	0	106.4303767	n/a	0	129.6111594	1	18	112.5000855	0	105.8456145	8	585.4615385	533.77	17	1	1	1	550.5	102.3607184	562.0526316	9	575.94	99.3557556	0	13	557.5	1	1	1	48.9483855	513.5	1	0.9791667	648	1	119.518788	0	0	0	662.3333333	16	1	589.5	144.064993	1	606.875	683.875	1	0	542.2352941	n/a	1
sub-10501	1	77.5731912	546.79	496	15	0	89.0413712	20	89.1560286	n/a	58.06	8	0	0	72.9686492	n/a	0	90.4843054	1	17	126.3700081	0	53.5513085	6	506.7	488.73	15	1	1	1	477.5	48.7727725	499.1333333	7	493.1	88.5272086	0	20	478.55	1	1	1	95.5719624	474	1	0.9166667	553.5	1	102.2804321	0	0	0	565.6470588	16	1	456.375	84.3766005	1	507	576.625	1	0	480.0666667	n/a	1
sub-10506	1	46.140572	575.98	498	17	0	71.446221	16	80.2378114	n/a	64.23	5	0	0	69.6588922	n/a	0	52.0312406	1	14	80.279264	0	60.7196766	7	523.7368421	511.75	16	1	1	1	510	61.0664483	509	6	518.04	100.8421208	0	19	527.1875	1	1	1	44.1452149	497	1	0.9583333	557.5	1	75.7658651	0	0	0	588.5714286	19	1	512.2	127.0244071	1	651.4285714	568	1	0	490.25	n/a	1
sub-10517	1	39.2622946	558.79	565.7	21	0	54.8291719	15	91.1094346	n/a	43.87	4	0	0	68.0741018	n/a	0	84.6790861	1	19	82.0796986	0	73.4788827	9	504	514.92	19	1	1	1	496.5	39.0670973	516.952381	10	513.08	110.2520239	0	14	490.6666667	1	1	1	98.9074202	500	1	0.9791667	550	1	82.0108538	0	0	0	576.5789474	15	1	534.75	120.8508033	1	575.5555556	536.3333333	1	0	514.2105263	n/a	0.9791667
sub-10523	1	75.0885192	623.35	477.1666667	18	0	61.5622593	18	76.107191	n/a	126.66	7	0	0	111.4170791	n/a	0	165.6731269	1	18	115.5162326	0	131.459927	8	500	496.69	19	1	1	1	483.5	115.5461731	540.9444444	6	521.08	71.2647646	0	20	481.5	1	1	1	44.7053315	476	1	1	595.5	1	138.3349056	0	0	0	633.2222222	19	1	526.2857143	163.169354	1	606	625.8421053	1	0	510	n/a	1
sub-10524	1	54.5406067	738.42	582.6923077	18	0	100.7002133	14	101.4793218	n/a	112.65	8	0	0	145.3239717	n/a	0	90.6531132	1	12	116.0711367	0	154.0360052	10	621.7894737	625.77	17	1	1	1	601	163.1357523	610.8888889	13	611.17	91.5945349	0	19	697.0714286	1	1	1	66.7525088	611.5	1	1	745.5	1	100.9325314	0	0	0	720	20	1	589	93.1726508	1	683.7	793.3	1	0	601.9411765	n/a	0.9791667
sub-10525	1	73.4559581	544.96	499.0714286	15	0	106.9750921	14	106.774934	n/a	50.38	11	0	0	67.7463851	n/a	0	82.1182655	1	16	67.7492704	0	55.8605406	10	462.8181818	494.58	16	1	1	1	493	65.9678985	511.5333333	14	497	93.4143993	0	11	514.8571429	1	1	1	130.6972216	478	1	0.9166667	534	1	81.3024299	0	0	0	555	11	1	505	111.4037701	0.9791667	575	550.8181818	1	0	489.375	n/a	0.9791667
sub-10527	1	87.4880944	597.63	552.5	17	0	109.7940279	21	86.6030317	n/a	65.13	7	0	0	104.1456887	n/a	0	77.8755134	1	16	43.6050009	0	141.0857747	6	506.4090909	532.5	17	1	1	1	501	83.0881892	530.7058824	6	510.04	52.3627758	0	22	541.8571429	1	1	1	84.3012455	518	1	1	573	1	62.4080458	0	0	0	593.5625	22	1	500.5714286	50.0395082	1	592.1666667	607.8636364	1	0	528.8823529	n/a	1
sub-10530	1	83.0384115	555.58	444.625	16	0	65.3087903	15	55.7031774	n/a	88.16	7	0	0	79.9166676	n/a	0	50.2790546	1	17	60.8890276	0	61.1485053	10	469.8421053	467.42	21	1	1	1	464	83.4461332	484.875	8	468.44	47.8914447	0	19	481.3333333	1	1	1	50.9563889	455	1	0.9583333	555	1	59.7159611	0	0	0	575.5294118	15	1	426.5714286	56.3023302	0.9791667	554.4	558.4	1	0	458.9047619	n/a	1
sub-10557	1	81.4935239	565.5	424.4	16	0	81.5715825	13	57.7746294	n/a	111.58	7	0	0	104.1529154	n/a	0	68.2880846	1	13	126.3427688	0	42.8660705	9	489.9333333	453.92	17	1	1	1	455	71.739314	484.9375	10	482.31	52.9046729	0	15	464.3846154	1	1	1	28.7718999	439	1	0.8333333	574.5	1	96.0197578	0	0	0	623	16	1	433.2857143	65.6244728	0.9791667	584.7777778	602.4375	1	0	457.8235294	n/a	1
sub-10565	1	130.7079442	700.42	592.9	15	0	191.9189644	18	218.7402916	n/a	45.86	6	0	0	162.9599655	n/a	0	191.0967843	1	17	139.1401348	0	143.3073876	6	580.2777778	654.56	18	1	1	1	578	179.2565324	600.1333333	10	609.13	224.7247336	0	18	657.2222222	1	1	1	165.8295309	590.5	1	1	663	1	178.2517494	0	0	0	700.4117647	17	1	562.3333333	84.7907228	0.9583333	678.1666667	680.1764706	1	0	632.5	n/a	1
sub-10570	1	123.1546699	692.94	574	19	0	107.3107637	15	98.7939955	n/a	123.15	11	0	0	103.017744	n/a	0	68.9259285	1	17	111.2321435	0	57.2635805	11	578.6153846	569.79	14	1	1	1	548	129.0425716	540.3157895	14	556.83	52.7032434	0	13	552.8	1	1	1	85.7294492	543	1	1	696	1	81.7797596	0	0	0	715.6470588	17	1	579.0909091	71.686058	1	691.4545455	675.1176471	1	0	561.6428571	n/a	1
sub-10575	1	79.3902357	502.92	414.125	14	0	46.5186087	15	52.7682567	n/a	79.57	9	0	0	92.6523664	n/a	0	48.2841862	1	13	46.5637521	0	108.0129978	7	412.7777778	423.35	14	1	1	1	406	78.227507	426.8571429	8	416.52	61.431325	0	18	417.8666667	1	1	1	53.0186962	423.5	1	0.875	503.5	1	47.1570439	0	0	0	538.8461538	15	1	393.3333333	49.2036584	1	488.8571429	528.4	1	0	422.5	n/a	1
sub-10624	1	161.1041416	717.23	561.7777778	19	0	178.3230082	15	106.4909159	n/a	137.29	7	0	0	167.7199083	n/a	0	96.7298039	1	17	65.2074179	0	158.3304437	10	535.5882353	579.94	18	1	1	1	542.5	186.0261881	571.1052632	9	559.33	43.4988168	0	17	609.6666667	1	1	1	61.21229	567.5	1	1	709.5	1	85.1480146	0	0	0	744.8235294	17	1	540.7142857	83.9041403	1	658.1	719.3529412	1	0	566.5	n/a	1
sub-10629	1	350.3092256	714.19	588.25	20	0	75.971064	13	85.857933	n/a	135.09	7	0	0	180.5418153	n/a	0	87.5568387	1	17	153.2000079	0	90.9629854	8	596.3333333	579.1	16	1	1	1	599	143.8041714	621.9	12	610.15	102.5884171	0	12	570.5384615	1	1	1	66.6334955	570	1	1	686.5	1	109.2107059	0	0	0	649.5294118	17	1	577.5714286	106.0516496	1	818.625	739.4705882	1	0	578.625	n/a	1
sub-10631	1	61.2777828	586.04	511.1428571	17	0	69.4200238	17	70.3108473	n/a	111.58	9	0	0	103.2927998	n/a	0	68.9320851	1	18	75.5097952	0	77.9088834	6	484.4375	474.46	17	1	1	1	452	72.9724671	474.4117647	7	471.54	58.925676	0	16	467.5294118	1	1	1	105.4157303	469	1	0.9166667	586	1	68.0728516	0	0	0	603.5	15	1	451.8888889	75.6016608	1	590.1666667	584.5333333	1	0	471.8823529	n/a	1
sub-10638	1	110.2418828	592.6	488.6	15	0	74.4782286	18	75.3142706	n/a	76.97	7	0	0	95.8604348	n/a	0	72.1890376	1	18	70.1632182	0	83.8139084	11	513.1052632	515.63	19	1	1	1	523	88.1374468	527.6	5	523.15	76.8564394	0	19	529.2222222	1	1	1	96.6685057	532	1	0.9583333	603	1	71.8488335	0	0	0	624.2222222	15	1	511.4285714	79.6824053	1	601.5454545	562.7333333	1	0	504.3684211	n/a	1
sub-10668	1	51.3803897	536.06	433.1428571	17	0	82.4959595	16	99.4731512	n/a	47.23	9	0	0	67.3265798	n/a	0	84.4445084	1	16	65.9426031	0	54.302701	9	467.2631579	488.83	19	1	1	1	462	79.4787964	473	7	477.35	52.2770957	0	19	490.375	1	1	1	29.3111388	467.5	1	1	529.5	1	74.7260214	0	0	0	525.625	18	1	477.4444444	68.1049027	1	498.2222222	547.0555556	1	0	466.6842105	n/a	1
sub-10672	1	61.2233616	642.58	626	23	0	87.5464639	16	99.7702947	n/a	43.95	5	0	0	54.5803461	n/a	0	75.9077868	1	19	48.1471397	0	62.2300956	5	580.5	598.63	21	1	1	1	583	38.3844815	601.0869565	9	587.38	118.2812226	0	18	603.625	1	1	1	67.4851836	573	1	1	648.5	1	62.3298108	0	0	0	626.8421053	20	1	542.6	11.4367828	1	616.4	661	1	0	594.3809524	n/a	1
sub-10674	1	94.9890345	571.15	512.9	12	0	109.3297614	18	89.7043212	n/a	57.82	10	0	0	84.5020432	n/a	0	91.8857575	1	12	248.9161558	0	47.6943393	4	565.9	513.33	15	1	1	1	515	102.5687718	501.0833333	10	537.63	83.3665458	0	20	524.0555556	1	1	1	84.4609706	496	1	0.8958333	581	1	174.2406779	0	0	0	603.75	18	1	520.9	83.3299333	1	550.25	564	1	0	504.5333333	n/a	1
sub-10678	1	56.7124325	632.83	592.2307692	21	0	277.1904966	15	175.8395049	n/a	39.98	5	0	0	143.6713646	n/a	0	98.5812452	1	14	116.4834037	0	228.192034	5	572.125	592.85	15	1	1	1	554.5	77.3734968	581.8095238	13	565.69	83.7045826	0	16	663	1	1	1	86.4003799	554.5	1	0.9583333	626	1	98.1807184	0	0	0	674.2857143	22	1	528.8	70.8780643	1	665.4	630.0909091	1	0	517.2	n/a	1
sub-10680	1	46.7225855	490.75	443.1111111	14	0	58.2446946	19	59.0776475	n/a	51.54	7	0	0	68.935832	n/a	0	46.3064328	1	17	111.2357856	0	65.1967046	4	445.75	439.21	13	1	1	1	422.5	59.9888531	394.1428571	9	428.44	47.5257015	0	16	446	1	1	1	52.9137138	434	1	0.8958333	492	1	76.7036037	0	0	0	509.1176471	16	1	432.1428571	33.173426	0.9375	445.5	505.5625	1	0	425.7692308	n/a	0.9791667
sub-10686	1	102.6034437	777.31	754.8333333	19	0	192.0800428	15	187.4608221	n/a	64.5	10	0	0	118.0962745	n/a	0	103.6174927	1	24	133.0843944	0	100.6969913	6	677.9285714	712.81	22	1	1	1	686	158.2797294	694.8421053	6	697.06	184.9178418	0	14	705.8	1	1	1	110.3329809	650	1	1	771.5	1	128.3659009	0	0	0	778.6666667	11	1	713.4	128.0001736	1	733.3333333	782.5454545	1	0	706.6818182	n/a	1
sub-10692	1	38.4382622	626.9	557.1428571	16	0	71.5581314	17	80.254206	n/a	90.73	10	0	0	79.3238017	n/a	0	79.5878707	1	20	70.5895503	0	68.7336583	5	538.5	536.17	17	1	1	1	546.5	87.9385712	576.3125	7	549.35	69.2440802	0	14	545.7647059	1	1	1	124.4285988	522.5	1	0.9791667	621	1	71.7796538	0	0	0	622	13	1	529.6	63.2177893	1	608	626.7692308	1	0	517.3529412	n/a	1
sub-10696	1	30.7338033	522.4	456.9285714	13	0	76.6793106	16	72.5454981	n/a	54.19	5	0	0	66.9142797	n/a	0	44.2056673	1	11	89.2438852	0	43.8109575	6	480.45	468.21	14	1	1	1	450.5	48.7582044	450.1538462	14	469.9	50.7459196	0	20	477.375	1	1	1	49.2957547	459.5	1	0.875	531	1	67.3037698	0	0	0	523	16	1	491.8	57.8809122	1	553.1666667	532.8125	1	0	445.0714286	n/a	1
sub-10697	1	105.9137115	659.98	563.8333333	14	0	102.3842664	19	101.0307779	n/a	77.6	6	0	0	99.3952971	n/a	0	81.0787502	1	17	139.4989162	0	79.7800745	8	566.047619	582.38	19	1	1	1	528.5	91.1026632	533.9285714	6	552.88	103.7729753	0	21	592.2631579	1	1	1	118.3070863	573	1	0.9791667	663	1	113.9422446	0	0	0	659.8823529	15	1	571.1666667	119.4578029	1	661.5	663.8666667	1	0	586.0526316	n/a	1
sub-10704	1	69.7526583	585.15	507.5	14	0	61.4370758	21	83.3484711	n/a	77.55	8	0	0	77.6916955	n/a	0	39.6263454	1	15	121.1475791	0	84.5161016	10	535.4545455	507.6	14	1	1	1	505	66.8749619	505.3571429	8	515.38	98.6489224	0	22	518.2857143	1	1	1	102.8091158	492.5	1	0.9583333	580	1	88.0528432	0	0	0	599.6	20	1	481.25	44.351679	1	620.9	567.55	1	0	474.9285714	n/a	1
sub-10707	1	172.3577674	616.81	487.4	16	0	106.4749656	18	86.0011133	n/a	125.56	7	0	0	96.4922346	n/a	0	57.8521103	1	16	81.798247	0	79.5318594	5	484.2105263	491.25	19	1	1	1	492.5	76.9845286	480.75	5	489.1	68.6870605	0	19	520.7222222	1	1	1	60.8465282	483.5	1	0.9375	625.5	1	66.1691062	0	0	0	649.125	18	1	509.7142857	31.5368265	1	595.8	584.5	1	0	469.3684211	n/a	0.9791667
sub-10708	1	160.9578472	581.94	504.5714286	14	0	55.069141	17	59.306688	n/a	89.63	9	0	0	109.8316713	n/a	0	64.892176	1	12	82.9529194	0	88.664673	8	509.85	492.31	17	1	1	1	505.5	106.2614008	520.9285714	7	510.79	71.6319227	0	20	488.1176471	1	1	1	55.5453483	478	1	0.9583333	570	1	67.908248	0	0	0	592.8333333	17	1	507.5555556	46.0654727	1	643.5	583.8823529	1	0	498.4117647	n/a	1
sub-10719	1	66.3720574	603.29	510.7142857	21	0	39.5313202	14	77.6663366	n/a	93.35	5	0	0	66.9702882	n/a	0	69.9671351	1	19	117.971127	0	71.212186	9	515.5714286	509.94	19	1	1	1	493.5	57.9968031	477	7	503.81	89.2467504	0	14	485.4285714	1	1	1	106.4107048	500	1	1	594.5	1	87.4744112	0	0	0	578.7894737	16	1	565	74.8765651	0.9791667	639.6666667	617.1875	1	0	527.7368421	n/a	1
sub-10724	1	73.8386271	666.85	597.6666667	21	0	138.2046641	16	148.6291436	n/a	45.47	8	0	0	112.0461511	n/a	0	97.223258	1	15	82.115369	0	137.2655404	7	600.0588235	621.38	16	1	1	1	586	85.2323994	578.1904762	12	592.73	144.9846975	0	17	599.4375	1	1	1	60.7728009	585.5	1	0.9583333	651	1	94.6064052	0	0	0	730.6	21	1	621.5	114.9447072	1	645.8571429	653.4761905	1	0	626.8125	n/a	1
sub-10746	1	92.69873	606.06	661	14	0	94.1536213	17	96.7025765	n/a	11.68	6	0	0	110.3546326	n/a	0	116.7844826	1	12	78.3690637	0	77.5107031	11	558.8333333	594.38	20	1	1	1	551.5	143.5838284	565	5	563.63	103.7258532	0	24	588.1764706	1	1	1	73.0855663	593.5	1	1	603.5	1	97.5926456	0	0	0	554.5	19	1	596.6666667	149.3943328	1	642.6363636	613.7368421	1	0	581	n/a	1
sub-10762	1	181.4866681	780.1	643.2727273	22	0	165.133366	15	139.7937168	n/a	131.91	5	0	0	183.529375	n/a	0	109.2483568	1	19	91.4373191	0	232.1839108	8	626.625	648.19	21	1	1	1	630.5	119.041831	619.1818182	11	649.96	152.0926096	0	16	668.8	1	1	1	78.3314635	607	1	1	712.5	1	138.5768023	0	0	0	826.5789474	18	1	644.2	85.1069915	1	817.375	717.3888889	1	0	639.1904762	n/a	1
sub-10779	1	152.8452376	730	606.5714286	21	0	104.8728221	17	89.6668776	n/a	117.25	12	0	0	159.974599	n/a	0	84.2100265	1	14	77.6843783	0	139.4679056	4	623.6428571	612.75	11	1	1	1	624	166.6978467	631.8571429	14	624.54	85.3596669	0	14	636.0588235	1	1	1	67.4522216	607.5	1	0.9791667	719	1	98.0872296	0	0	0	726.7142857	24	1	596.4166667	128.8723529	1	743.5	716.7916667	1	0	568.5454545	n/a	1
sub-10785	1	372.6572535	880.83	638.0909091	18	0	112.2875772	18	182.9882847	n/a	191.1	4	0	0	254.5520332	n/a	0	122.3183995	1	12	83.7675794	0	300.1419361	8	606.5882353	689.73	12	1	1	1	597.5	179.6367056	631.4444444	11	612.5	304.2136908	0	17	681.8333333	1	1	1	74.1787767	621.5	1	1	823	1	105.3118975	0	0	0	947.5	24	1	576.5	60.0305478	1	932.5	808.7083333	1	0	793.1666667	n/a	1
sub-10788	1	171.7583574	780.23	688.5555556	18	0	70.4454576	16	99.7062152	n/a	137.13	10	0	0	171.4305566	n/a	0	158.0287163	1	17	99.4948701	0	92.9862023	10	598.8125	643.1	16	1	1	1	635	210.949046	664.3888889	9	643.29	113.2784181	0	16	619.1875	1	1	1	70.2639863	651.5	1	1	759.5	1	120.2753858	0	0	0	730.0588235	17	1	662.7	66.8248956	1	810.4	800	1	0	654.5	n/a	1
sub-10844	1	28.7095471	604.25	557.2727273	15	0	81.0391734	21	74.8362633	n/a	45.21	13	0	0	56.9690099	n/a	0	68.1499048	1	18	64.4883157	0	59.9806341	7	542.2	559.04	11	1	1	1	551.5	61.4532105	551.1333333	11	549.13	75.2160524	0	15	556.6190476	1	1	1	70.591913	541.5	1	1	610.5	1	66.7145794	0	0	0	614.8333333	19	1	564.3076923	78.057014	1	633.7142857	589.9473684	1	0	560.6363636	n/a	1
sub-10855	1	51.5759957	679.13	549.875	17	0	89.769476	17	83.9608545	n/a	68.78	11	0	0	85.2759289	n/a	0	85.217326	1	15	87.210361	0	79.3385152	12	636.6666667	610.35	16	1	1	1	620	82.9170189	626.6470588	8	616.56	79.7954677	0	18	609.0588235	1	1	1	63.822158	611	1	1	678.5	1	84.9813262	0	0	0	688.2	18	1	569	76.61462	1	638.9166667	678.0555556	1	0	619.375	n/a	1
sub-10871	1	68.7709564	694.94	569.75	16	0	103.9364403	19	95.393639	n/a	145.21	6	0	0	107.4807071	n/a	0	101.0877507	1	19	90.6333515	0	142.1311889	9	576.8235294	549.73	17	1	1	1	567	74.71981	583.25	8	579.54	95.253686	0	17	553.3157895	1	1	1	98.8241584	535	1	1	691	1	89.6237901	0	0	0	728.0526316	16	1	600.8333333	61.9787598	1	661.2222222	678.625	1	0	549.5294118	n/a	1
sub-10877	1	40.4245329	534.83	437.6363636	16	0	123.2869528	11	90.0932929	n/a	90.75	10	0	0	112.5358257	n/a	0	62.6795754	1	13	70.2598005	0	102.4940273	7	419.1428571	444.08	20	1	1	1	447	102.2746303	469.9375	11	446.08	86.7161734	0	14	457.5454545	1	1	1	63.2317527	423	1	0.8125	534	1	65.1188221	0	0	0	582.2307692	10	1	434.9	69.4397421	1	539.1428571	590.9	1	0	433.7	n/a	1
sub-10882	1	55.8345771	602	610.8181818	19	0	105.8307274	15	102.5816402	n/a	45.17	8	0	0	53.1833441	n/a	0	88.5902256	1	16	157.4246085	0	53.9660387	9	542.4117647	556.83	17	1	1	1	505	46.3900952	542.6842105	11	537.6	86.0101311	0	17	564	1	1	1	122.810275	535.5	1	1	602	1	111.095079	0	0	0	606.75	19	1	532.375	64.6041518	1	634.6666667	583.4736842	1	0	529.3529412	n/a	1
sub-10891	1	112.159007	549.98	468.625	14	0	67.0861755	14	69.4809403	n/a	59.6	7	0	0	87.2932182	n/a	0	38.3096837	1	10	67.1341805	0	53.6926438	8	525.2916667	490.38	20	1	1	1	499	89.1080804	488.3571429	8	506.96	70.6447562	0	24	506.3571429	1	1	1	59.2499247	480	1	0.9166667	544	1	67.9120076	0	0	0	521.7	17	1	447.7142857	56.4703884	1	562.75	558	1	0	477.95	n/a	1
sub-10893	1	79.3731693	578.73	501.2	12	0	99.5896016	22	128.1915054	n/a	32.19	10	0	0	76.1833565	n/a	0	77.2192863	1	18	62.4669176	0	65.7267069	10	509.7	546.54	16	1	1	1	526	70.3409554	558.5	5	534.35	111.1173554	0	20	536.7727273	1	1	1	102.3386535	515.5	1	0.9791667	581	1	97.9032283	0	0	0	580	16	1	558.5	166.4874036	1	586.1	573.375	1	0	540	n/a	1
sub-10912	1	116.7487381	698.71	622.6	15	0	130.1159807	20	111.7278148	n/a	77.92	5	0	0	115.4447382	n/a	0	82.1657442	1	16	95.8097863	0	94.6909887	8	640.0909091	620.79	19	1	1	1	612.5	130.6710526	608.9333333	5	631.5	90.8651723	0	22	653.8	1	1	1	116.6674762	590.5	1	1	679.5	1	96.0551703	0	0	0	706.375	19	1	683.2	138.7613058	1	665.375	710.5789474	1	0	595.5789474	n/a	1
sub-10934	1	128.0399863	688.21	592.625	16	0	148.314231	19	121.4159207	n/a	99.77	7	0	0	165.7027534	n/a	0	99.5754111	1	19	104.3377893	0	147.7140235	7	556.5263158	588.44	19	1	1	1	542.5	195.6438516	571.0625	8	572.06	81.3470293	0	19	609	1	1	1	144.0406069	561.5	1	0.9791667	649.5	1	119.3267294	0	0	0	705.1052632	16	1	541.1428571	83.151325	1	582.7142857	720.875	1	0	576.3157895	n/a	1
sub-10940	1	64.8421159	537.02	436	17	0	68.1724074	18	55.6266525	n/a	85.89	12	0	0	63.5119321	n/a	0	41.4385619	1	22	55.3148016	0	52.6804464	9	437.5	451.13	17	1	1	1	443	46.0082211	467.8235294	9	461.04	37.0761339	0	12	473.7777778	1	1	1	52.4380587	450	1	0.9583333	532	1	85.2483127	0	0	0	549.0909091	13	1	473.25	147.4850532	1	514.3333333	561.3846154	1	0	436.4705882	n/a	1
sub-10948	1	n/a	811.58	682.7	10	n/a	103.0866487	8	160.4041217	n/a	150.66	8	0	0	181.2470787	n/a	0	73.7540206	1	6	164.3987023	-1	219.2037865	0	656	660.92	17	0	1	1	566	105.4889974	573.1	10	598.79	181.1708854	0	16	684.5	1	1	1	178.1709853	625	1	0.3958333	768.5	1	128.6547348	0	0	0	818.5	8	1	548.75	77.6820443	0.9791667	n/a	804.75	n/a	0	632.5294118	n/a	1
sub-10949	1	139.2537905	641.98	562.4545455	18	0	74.4011132	13	83.5300276	n/a	92.38	8	0	0	137.7795788	n/a	0	56.6657439	1	16	126.4277697	0	113.4399805	11	547.4666667	549.6	19	1	1	1	534.5	163.3253512	544.7777778	11	543.33	76.5161375	0	15	541.7692308	1	1	1	106.4071084	551.5	1	0.9583333	633	1	107.8170897	0	0	0	619.3125	14	1	553.75	185.6261604	1	671.2727273	655.3571429	1	0	543.9473684	n/a	1
sub-10958	1	62.1869047	554.52	463.1	14	0	63.2534003	17	79.1342758	n/a	46.87	12	0	0	77.0476475	n/a	0	72.9406277	1	13	31.5671553	0	59.1116935	10	495.1176471	507.65	14	1	1	1	493.5	81.7988926	487.2142857	10	499.21	89.437098	0	17	504.3529412	1	1	1	51.189083	500.5	1	0.9583333	557	1	52.550263	0	0	0	520.7692308	18	1	514.4166667	53.2702515	1	598.1	567.6666667	1	0	531.9285714	n/a	1
sub-10963	1	107.7485499	705.33	590.6666667	15	0	124.1391833	20	123.676884	n/a	61.5	7	0	0	87.0882002	n/a	0	75.9954886	1	20	81.8541131	0	63.9312748	9	559.6875	643.83	17	1	1	1	588	94.0255109	609.8	6	601.79	124.475665	0	16	671.7	1	1	1	88.9306846	639	1	1	681	1	89.8464312	0	0	0	696.05	14	1	668.7142857	56.6324827	1	705.6666667	690.7857143	1	0	612.2352941	n/a	1
sub-10968	1	138.2087793	592.44	524.625	20	0	73.5823868	17	87.5632876	n/a	48.54	9	0	0	98.8859016	n/a	0	116.0659862	1	18	152.0832804	0	105.8339432	4	532.6428571	543.9	15	1	1	1	503	79.5398609	514.05	8	539.5	109.3410131	0	14	535.3529412	1	1	1	64.1915382	544.5	1	0.9583333	588	1	137.6793994	0	0	0	601.3333333	20	1	535.2222222	48.4297888	1	641.5	591.8	1	0	552.2	n/a	1
sub-10971	1	n/a	1070.02	708.75	0	n/a	n/a	0	139.8690814	n/a	314.06	4	0	n/a	369.1901856	n/a	n/a	n/a	1	0	219.2356709	-1	n/a	0	774.1764706	755.96	21	0	n/a	1	765.5	n/a	n/a	8	806.43	121.1042841	0	17	n/a	1	n/a	1	65.6369887	722.5	n/a	0	1095	n/a	234.6295065	n/a	0	n/a	n/a	0	1	710.25	110.4275781	1	n/a	n/a	n/a	0	734.3809524	n/a	1
sub-10975	1	118.5050824	614.38	506.125	11	0	79.2550953	22	73.629075	n/a	83.07	8	0	0	87.4860779	n/a	0	87.4817384	1	15	87.564361	0	70.4727573	11	530.7727273	531.31	14	1	1	1	520	78.520802	549.6363636	8	531.52	71.5194587	0	22	546.3181818	1	1	1	46.9450667	522	1	1	620.5	1	87.8179911	0	0	0	634.5333333	18	1	503.625	103.8005471	1	620.3636364	601.1111111	1	0	531.5714286	n/a	1
sub-10977	1	44.9990741	771.44	743	15	0	92.426805	21	89.8729205	n/a	44.52	10	0	0	124.365095	n/a	0	107.2271732	1	16	101.7663125	0	117.3826897	4	689.1666667	726.92	13	1	1	1	712	111.8455114	738.6666667	6	738.5	75.9584907	0	18	723.7142857	1	1	1	117.5244655	728.5	1	1	744	1	157.2716852	0	0	0	771.1875	20	1	800.7	138.6082008	1	656.75	755.05	1	0	742.7692308	n/a	1
sub-10987	1	198.2782557	987.94	927	14	0	139.569215	20	220.5540885	n/a	155.24	11	0	0	246.6779699	n/a	0	68.6265975	1	15	115.6862818	0	247.2438549	10	765.5	832.7	15	1	1	1	762.5	164.2086107	760.9285714	8	761.21	152.1103922	0	20	827.75	1	1	1	287.0798794	774	1	1	910	1	97.9715457	0	0	0	1025.6666667	19	1	765.2727273	108.3975008	1	1065.4	942.3684211	1	0	755	n/a	1
sub-10998	1	87.5192496	756.85	639.8888889	15	0	227.9807927	18	175.5659832	n/a	80.08	10	0	0	225.0098658	n/a	0	85.2800987	1	16	246.6241782	0	275.5136945	7	680.8823529	676.77	15	1	1	1	628	137.7483734	642.4666667	9	651.33	170.130986	0	17	684.2222222	1	1	1	110.5186007	636.5	1	0.9787234	714.5	1	168.7706909	0	0	0	816.9375	18	1	587.4	116.2709479	1	724.5714286	724.5555556	1	0	682.4666667	n/a	1
sub-11019	1	51.3640601	645.83	524.625	16	0	130.2008347	17	96.5561976	n/a	97.41	10	0	0	99.145355	n/a	0	87.3359176	1	22	54.7976364	0	65.7293579	10	532.2666667	548.42	19	1	1	1	541.5	155.2999785	566.3125	8	547.98	55.1024033	0	15	587.4117647	1	1	1	89.3307458	532	1	0.9791667	646	1	94.0297575	0	0	0	647.4090909	12	1	541	108.2055657	0.9583333	610.4	673.4166667	1	0	519.9473684	n/a	1
sub-11030	1	71.5215585	563.9	550.5714286	18	0	88.2315136	21	78.3935335	n/a	26.73	6	0	0	70.6884804	n/a	0	61.7240591	1	18	70.0456259	0	69.6157521	4	493.4705882	537.17	14	1	1	1	522.5	68.5661417	522.7222222	7	517.15	80.3302592	0	17	528	1	1	1	67.3717476	527	1	0.9375	554.5	1	70.3656074	0	0	0	588.3333333	19	1	501.6666667	88.7641069	1	573	554.7368421	1	0	544.2142857	n/a	1
sub-11044	1	123.4993252	679.46	603.5	13	0	143.0746155	17	129.5390748	n/a	49.06	13	0	0	114.867909	n/a	0	68.5579485	1	15	93.9573154	0	149.6203768	12	601.7222222	630.4	15	1	1	1	608.5	58.9312806	624.7692308	12	612.81	152.4422451	0	18	632.2941176	1	1	1	101.5824788	620	1	0.9791667	657	1	79.4999415	0	0	0	715.6	16	1	601.0769231	77.0816251	1	683.0833333	649.6875	1	0	648.7333333	n/a	1
sub-11050	1	62.2651779	647.21	501.7142857	14	0	85.03533	17	88.0248595	n/a	115.13	10	0	0	96.5681235	n/a	0	113.7613658	1	17	89.2911217	0	100.7022037	7	548.8235294	532.08	16	1	1	1	550.5	96.3414959	610.4285714	7	567.08	75.1852989	0	17	558.5882353	1	1	1	69.7201891	541.5	1	0.9375	629.5	1	97.9908448	0	0	0	659.9411765	17	1	521.3	53.8806294	1	639.4285714	644.9411765	1	0	539.1875	n/a	0.9375
sub-11052	1	70.9711931	490.65	426.3333333	13	0	43.4473282	14	53.8842954	n/a	56.84	11	0	0	76.6657541	n/a	0	57.1559944	1	14	88.4808292	0	53.0485989	13	463	433.81	17	1	1	1	442.5	56.7672014	431.8461538	12	456.6	59.1733495	0	15	429.8571429	1	1	1	65.8722363	423.5	1	0.9583333	488.5	1	87.1168791	0	0	0	496	12	1	500.2727273	120.7551994	0.9583333	482.0769231	486.1666667	1	0	447.8823529	n/a	1
sub-11059	1	64.5932327	607.83	600.6363636	11	0	61.9049923	19	63.3968385	n/a	21.73	11	0	0	48.7622689	n/a	0	54.8813596	1	14	130.6875878	0	49.8315845	8	580.6315789	586.1	14	1	1	1	548	52.1437493	532.8181818	11	557.96	59.894275	0	19	588.6842105	1	1	1	63.214354	579.5	1	1	602	1	89.3660791	0	0	0	606.4285714	17	1	544.4545455	33.8211875	1	621	602.2941176	1	0	588.3571429	n/a	1
sub-11061	1	37.1040579	731.17	670.8888889	13	0	83.1858414	20	72.0454816	n/a	80.38	8	0	0	73.6964254	n/a	0	56.6855926	1	20	78.362187	0	67.2178509	10	649.5882353	650.79	17	1	1	1	653.5	98.7681545	648.6153846	9	657.31	65.7043288	0	17	658.1	1	1	1	58.5884896	644.5	1	1	727.5	1	74.9474018	0	0	0	708.15	14	1	676.25	53.5690476	1	727.4	762.0714286	1	0	638.9411765	n/a	1
sub-11062	1	133.965294	785.17	518.75	16	0	107.0485871	16	139.0802552	n/a	147.38	5	0	0	192.2471075	n/a	0	163.4041513	1	17	83.0836259	0	213.209042	5	603.7777778	637.79	20	1	1	1	604	182.8830918	654.125	8	633.92	159.7941027	0	18	660.75	1	1	1	75.3406549	611.5	1	0.9375	731	1	138.6668798	0	0	0	825.2941176	14	1	634.4	128.5818805	0.9583333	753.2	825.9285714	1	0	681.55	n/a	1
sub-11066	1	66.9848242	556.56	470.25	21	0	62.3546309	10	81.5042965	n/a	78.39	3	0	0	88.3134905	n/a	0	64.9930766	1	15	68.9464306	0	97.7004655	6	500.8823529	478.17	23	1	1	1	505	90.2525854	508	8	504.21	67.8462281	0	17	450.1	1	1	1	80.7920611	461.5	1	0.9166667	559.5	1	62.1915224	0	0	0	556.6666667	16	1	520.6666667	41.1865674	1	532.1666667	590.9375	1	0	483.2608696	n/a	1
sub-11067	1	97.7854795	668.63	613	19	0	48.3242255	14	77.7934133	n/a	46.82	11	0	0	124.4832083	n/a	0	144.1516623	1	19	120.2235292	0	133.5392489	9	637.3333333	621.81	18	1	1	1	642	105.1608658	669.4210526	11	665.88	88.3308546	0	12	636	1	1	1	92.9806431	617.5	1	0.9791667	655	1	142.0748417	0	0	0	635.7894737	13	1	641.5454545	135.3147173	1	725	650.8461538	1	0	616.8888889	n/a	1
sub-11068	1	122.3764683	680.85	654.2222222	13	0	91.330079	16	91.3199892	n/a	68.1	12	0	0	97.7486985	n/a	0	108.8313798	1	13	56.8953564	0	81.435518	7	583.65	612.75	18	1	1	1	579.5	92.1686859	646.5384615	9	606.46	102.2889825	0	20	594.875	1	1	1	84.4360376	589	1	1	660	1	76.2615763	0	0	0	661.0769231	15	1	594.6666667	47.6165237	1	733	656.9333333	1	0	618.7222222	n/a	1
sub-11077	1	59.4661095	573.31	471.2	19	0	79.9960164	14	64.6974409	n/a	105.98	7	0	0	78.9899418	n/a	0	68.8144807	1	18	80.0155937	0	70.3170458	11	461.9333333	467.33	19	1	1	1	492	54.5541368	493.8947368	10	492.65	57.1763457	0	15	480.8571429	1	1	1	63.3592929	472	1	0.9375	583.5	1	79.712913	0	0	0	570.6111111	14	1	503.1428571	48.9401967	1	599.7272727	602	1	0	451.3684211	n/a	1
sub-11082	1	50.6951674	546.46	466.6666667	10	0	41.0836677	24	55.8803774	n/a	102.81	9	0	0	102.5066595	n/a	0	127.4206071	1	17	63.0845238	0	82.9399145	4	441.5714286	443.65	13	1	1	1	432.5	79.128561	471.7	6	449.81	45.9797893	0	21	438.2916667	1	1	1	49.9666555	437.5	1	0.9375	553	1	77.1651052	0	0	0	544.1764706	16	1	444.2222222	57.355858	1	565	545.5625	1	0	426.8461538	n/a	1
sub-11088	1	72.0728167	730.6	612.7142857	20	0	83.4831474	13	93.0321286	n/a	111.31	10	0	0	158.6784169	n/a	0	106.6392838	1	16	67.407731	0	136.7859033	11	624.5714286	619.29	17	1	1	1	633.5	208.9583292	653.6	14	654.79	84.5361913	0	14	631.5384615	1	1	1	116.1414446	615.5	1	1	695.5	1	117.3639472	0	0	0	735.625	16	1	715	173.2127786	1	700.0909091	732.125	1	0	603.3529412	n/a	1
sub-11090	1	68.4959447	579.9	544.625	19	0	58.5132108	16	70.9273927	n/a	53.57	10	0	0	57.2163641	n/a	0	78.155528	1	19	59.0187218	0	44.6619531	9	521.9333333	526.33	18	1	1	1	508	46.284595	531.2105263	8	524.38	93.303987	0	15	530.9375	1	1	1	53.2512575	525.5	1	0.9791667	578	1	70.0436414	0	0	0	570.6315789	14	1	542.5	68.7495455	1	597.7777778	572.4285714	1	0	522.8888889	n/a	1
sub-11097	1	51.4460343	619.69	561.8333333	13	0	65.1059908	22	71.8817704	n/a	70.79	11	0	0	73.1259934	n/a	0	60.535855	1	18	59.2166732	0	67.4702549	9	542.4444444	548.9	15	1	1	1	548.5	94.9589166	517.6153846	6	540.27	71.4620779	0	18	570.8636364	1	1	1	77.3651515	547	1	1	622.5	1	60.3280886	0	0	0	621.3333333	16	1	538	62.2382519	1	603.2222222	616.5625	1	0	507.6	n/a	1
sub-11098	1	115.0425387	607.69	514.1666667	15	0	80.0046725	21	78.1735544	n/a	88.48	13	0	0	114.8996151	n/a	0	51.4434502	1	25	61.0450263	0	126.6554644	8	505.9333333	519.21	19	1	1	1	500	61.9104192	500	6	503.48	85.8671284	0	15	512.6190476	1	1	1	63.8103962	498	1	1	599	1	54.7357247	0	0	0	599.24	10	1	494.2307692	53.2042508	1	630.75	591.7	1	0	530.9473684	n/a	1
sub-11104	1	64.7292262	547.63	491.4444444	16	0	65.8915415	15	58.6548346	n/a	76.32	9	0	0	58.6836543	n/a	0	58.4716456	1	20	67.9249586	0	61.0368957	11	492.25	471.31	22	1	1	1	492.5	40.7234576	478	9	494.65	39.7526987	0	16	490.1333333	1	1	1	77.2950696	457	1	0.9791667	541.5	1	85.7595574	0	0	0	550.35	10	1	477	41.9076365	1	557.4545455	553.2	1	0	450.0909091	n/a	1
sub-11105	1	71.3221175	707.66	647.3333333	12	0	122.3916528	16	109.29831	n/a	106.58	8	0	0	163.6480179	n/a	0	138.7295986	1	14	73.3189157	0	87.6201843	10	573.3888889	601.08	15	1	1	1	569.5	202.1369644	617.0833333	9	623.31	75.3544008	0	18	615.125	1	1	1	130.7889521	591	1	1	676	1	177.3960776	0	0	0	696.2857143	15	1	615.875	123.3571325	1	687.2	719.9333333	1	0	547	n/a	0.9791667
sub-11106	1	54.5221667	626.19	606.5	21	0	69.7046289	17	128.7824875	n/a	79.77	6	0	0	91.3905941	n/a	0	64.8555905	1	21	78.5067016	0	78.584289	6	545.9285714	546.42	19	1	1	1	528.5	105.0653765	536.3809524	8	538.06	151.8972221	0	14	530.1176471	1	1	1	187.5290454	527.5	1	0.9791667	610.5	1	73.6366601	0	0	0	610.9047619	16	1	554	65.3360544	0.9791667	656.6666667	643.25	1	0	537.8947368	n/a	1
sub-11108	1	55.6080672	571.58	505.8333333	16	0	92.0026576	14	77.1613282	n/a	51.79	8	0	0	60.7334018	n/a	0	85.7729561	1	16	64.6210818	0	56.3420728	15	518.1	519.79	22	1	1	1	509	42.3341625	529.75	6	523.46	76.1135658	0	20	544.7857143	1	1	1	59.7240878	498	1	0.9791667	560	1	71.7510348	0	0	0	558.8125	14	1	515.125	81.3571272	1	578.4	581.2142857	1	0	516.3181818	n/a	0.9791667
sub-11112	1	146.3102677	686.1	689.2222222	16	0	122.2470979	18	139.4656453	n/a	33.29	10	0	0	123.6658572	n/a	0	64.4070066	1	16	88.0035747	0	111.3736766	9	532.3125	652.81	14	1	1	1	558	108.3523664	555.5625	9	550.13	166.6362921	0	16	658.3333333	1	1	1	138.112072	613.5	1	0.9583333	674	1	91.3638098	0	0	0	686.6875	17	1	556.7	113.6623166	0.9791667	658.2222222	726.8823529	1	0	613.5	n/a	1
sub-11121	1	111.134803	499.56	489.3333333	11	0	76.2250257	11	96.592329	n/a	13.98	5	0	0	87.227486	n/a	0	65.3403676	1	13	69.8633817	0	76.3900249	9	454.95	485.58	17	1	1	1	466	61.4741972	483.1818182	9	476.85	104.4335209	0	20	492.3636364	1	1	1	104.1957293	476	1	0.8541667	485	1	76.9741569	0	0	0	491.4615385	13	1	466	71.0492787	0.9583333	572.2222222	505.0769231	1	0	483.1176471	n/a	0.9583333
sub-11122	1	128.5717698	701.38	565.7142857	19	0	132.4746693	19	127.4437698	n/a	57.23	6	0	0	112.8300596	n/a	0	130.1861915	1	20	98.3740311	0	114.4692098	6	597.375	644.15	17	1	1	1	630	100.9363879	663	7	640.23	151.4488605	0	16	659.7368421	1	1	1	64.1501216	627	1	0.9791667	714.5	1	121.1635504	0	0	0	716.6	17	1	657.5	154.129491	1	690.5	701.1764706	1	0	652.5882353	n/a	1
sub-11128	1	76.7642495	650.38	635.4375	21	0	70.469228	14	134.9616556	n/a	54.28	6	0	0	99.6979748	n/a	0	135.1605042	1	14	113.9556533	0	57.4024256	9	574.0909091	596.1	13	1	1	1	571	102.705199	610.8095238	16	596.9	124.1044845	0	11	566.7142857	1	1	1	174.5779554	574.5	1	0.9375	633	1	118.1305156	0	0	0	640.5	20	1	540.1666667	51.4486799	0.9791667	711.3333333	655.4	1	0	603.6153846	n/a	0.9791667
sub-11131	1	100.8421681	713.33	576	15	0	153.9597923	17	130.5071514	n/a	100.6	10	0	0	168.4473948	n/a	0	172.7892192	1	11	67.5369724	0	62.6521421	8	567.3529412	612.73	16	1	1	1	567	130.6355787	637.4	8	592.21	108.6728845	0	17	634.6470588	1	1	1	138.2027496	590	1	0.8958333	717.5	1	119.4731267	0	0	0	673.9090909	17	1	553.4	107.183332	0.9791667	751	701.1764706	1	0	606.0625	n/a	0.9791667
sub-11142	1	265.0037399	714.42	782.8571429	12	0	192.1358786	16	272.2262044	n/a	42.42	10	0	0	167.0401701	n/a	0	113.8884023	1	16	237.7787192	0	109.2428487	8	614.9473684	672	18	1	1	1	578.5	127.6573438	650.25	7	623.57	160.6809956	0	19	621.9375	1	1	1	378.2360059	581.5	1	0.9583333	684	1	214.5414539	0	0	0	742.5	13	1	643.8	135.2000986	1	696.125	742.3076923	1	0	622.5	n/a	1
sub-11143	1	55.7329944	540.83	448.2222222	20	0	95.582291	13	96.9948978	n/a	38.73	4	0	0	101.2139788	n/a	0	104.7028879	1	13	99.8040564	0	94.4832097	6	483.4444444	502.1	14	1	1	1	472.5	97.827166	495.2	9	483.96	106.486882	0	18	509.1538462	1	1	1	73.040704	487.5	1	0.875	551	1	97.1414758	0	0	0	543.9230769	17	1	472.5	79.5675813	0.9791667	546.1666667	549.1764706	1	0	511.9285714	n/a	0.9166667
sub-11149	1	92.9573379	556.4	504.5555556	16	0	82.5243894	19	79.0948797	n/a	75.9	11	0	0	116.4247067	n/a	0	69.5401263	1	19	120.466675	0	153.9774799	6	520.2857143	480.5	13	1	1	1	479.5	90.1509614	498.3125	9	507.44	77.1464641	0	14	490.9473684	1	1	1	93.4800929	464.5	1	0.9583333	543.5	1	93.1322341	0	0	0	563.2105263	16	1	483.3636364	62.7156643	1	594.3333333	549.5625	1	0	456.9230769	n/a	1
sub-11156	1	38.4075885	611.6	552.5	18	0	119.483159	14	105.2721882	n/a	64.58	7	0	0	72.3024792	n/a	0	56.2306176	1	15	75.2978103	0	103.2660918	7	541.7368421	547.02	20	1	1	1	549.5	51.1275798	559	4	549.94	87.8398663	0	19	571.9285714	1	1	1	90.090695	509.5	1	0.9791667	600	1	61.1848981	0	0	0	630.2	18	1	550.7142857	43.4692009	1	574.1428571	625.8333333	1	0	510.5	n/a	1
sub-50004	1	307.6385867	595.52	573	8	0	273.4908591	9	196.801245	n/a	32.21	6	0	0	214.5415686	n/a	0	162.9048802	1	9	65.9782161	0	193.9412139	5	638.625	563.31	11	1	1	1	592	209.426996	592.5	3	591.26	120.3814392	0	8	648.6666667	1	1	1	169.0354992	566	1	0.625	549.5	1	178.9541016	0	0	0	709.2222222	7	1	540.1666667	58.8061788	0.7234043	524	709	1	0	517.9090909	n/a	0.7083333
sub-50005	1	242.4095929	960.33	877.2	17	0	141.7981987	16	231.1414783	n/a	203.81	9	0	0	233.3775439	n/a	0	91.5525404	1	16	109.2751236	0	161.6155417	8	641.0526316	756.52	18	1	1	1	669.5	233.0618378	702.3529412	5	680.02	167.1385477	0	19	728.9375	1	1	1	222.3650152	716	1	0.9791667	947	1	108.4818819	0	0	0	815.375	18	1	672.3333333	85.0264665	1	1012.875	1047.9444444	1	0	707.6666667	n/a	0.9782609
sub-50006	1	113.1871606	878.85	784.5	17	0	117.4841818	14	219.8505446	n/a	178.38	4	0	0	292.2412992	n/a	0	202.4681711	1	14	202.7366107	0	215.2849504	4	720	700.47	16	1	1	1	638.5	272.3723422	692.1176471	8	699.04	100.5637443	0	16	664.9285714	1	1	1	235.4121007	662.5	1	0.9148936	830.5	1	211.4276656	0	0	0	914.0714286	18	1	693	289.3452379	0.9583333	765	922.1111111	1	0	666.5	n/a	1
sub-50007	1	78.2732394	612.5	588.75	13	0	156.3313655	16	138.4008834	n/a	28.06	10	0	0	160.2035939	n/a	0	78.4729253	1	15	124.2609485	0	181.6910512	5	533.375	584.44	15	1	1	1	527.5	177.6304144	509	8	537.04	159.1417457	0	16	593.1875	1	1	1	85.0525048	592.5	1	0.7916667	587	1	96.9461264	0	0	0	611.0666667	13	1	531.8	83.0070947	1	666.8	675.3076923	1	0	536.6666667	n/a	1
sub-50008	1	100.3351526	725.83	671.3333333	18	0	109.1561573	15	131.0058722	n/a	105.64	7	0	0	131.4128355	n/a	0	84.0148018	1	6	125.3499942	0	242.8618263	8	641.1	620.19	14	1	1	1	623	89.6393329	600.3888889	9	625.02	103.9775969	0	20	594.9333333	1	1	1	93.5534607	596.5	1	0.9166667	702	1	101.9982248	0	0	0	861.3333333	25	1	661.2857143	38.339337	1	766.5	719.72	1	0	596.4285714	n/a	1
sub-50010	1	78.4874876	693.15	582.9	16	0	65.6884793	20	79.0467027	n/a	101.36	9	0	0	84.5387962	n/a	0	80.66058	1	15	80.9007677	0	51.5431396	7	612.25	591.79	15	1	1	1	616	88.9388233	618.4375	10	627.92	84.9477711	0	20	585.65	1	1	1	99.0829619	583.5	1	1	680.5	1	102.1808645	0	0	0	652.4666667	21	1	638.5555556	117.4501076	1	677.4285714	703.2857143	1	0	590.5333333	n/a	1
sub-50013	1	132.9938386	682.56	617.25	16	0	94.8050244	17	103.7426726	n/a	88.29	10	0	0	125.2265872	n/a	0	79.4505087	1	18	106.6150304	0	110.038095	9	587.4705882	594.27	18	1	1	1	615.5	150.0243175	634.625	8	600.5	122.2523908	0	17	608.6470588	1	1	1	64.1376867	582.5	1	0.9791667	668	1	97.4092049	0	0	0	666.5	16	1	579.1	109.7769962	1	671.1111111	700.3125	1	0	579.6666667	n/a	1
sub-50014	1	91.1513394	536.38	494.75	17	0	77.538439	15	79.0214981	n/a	43.05	11	0	0	106.7577542	n/a	0	122.0016574	1	17	49.8125056	0	94.8927801	6	463	493.33	16	1	1	1	485.5	102.5569296	521.8235294	8	506.52	78.0892385	0	15	493.9333333	1	1	1	101.730386	488	1	0.875	541	1	103.1012701	0	0	0	565.5294118	15	1	537.2727273	85.6832433	1	584.1666667	552.2666667	1	0	492.9375	n/a	1
sub-50015	1	120.8322988	581.58	536.1666667	11	0	151.5653874	16	141.8236281	n/a	20.7	12	0	0	121.1838472	n/a	0	96.1689801	1	17	131.6275047	0	111.8375266	9	564.25	560.88	15	1	1	1	517.5	82.3431015	499.5454545	6	546.96	97.245492	0	16	559.25	1	1	1	34.4639909	537	1	0.875	582.5	1	118.952513	0	0	0	568.5882353	12	1	609.5833333	122.5200973	1	650.2222222	594.75	1	0	542.6	n/a	0.9791667
sub-50016	1	196.2098003	957.46	1056.75	22	0	134.7788312	12	140.9057328	n/a	32.96	7	0	0	150.066646	n/a	0	121.2299968	1	14	142.3078183	0	143.6069307	8	891.3333333	924.5	14	1	1	1	797	146.638428	786.9545455	8	814.79	164.9248913	0	12	882.3333333	1	1	1	79.906642	937.5	1	1	945.5	1	142.8391386	0	0	0	959.2142857	21	1	752.8571429	94.3370351	1	899.5	955.1428571	1	0	903.2857143	n/a	1
sub-50020	1	51.6600778	601.25	515.4	18	0	63.3105029	14	55.6376958	n/a	68	10	0	0	78.8506533	n/a	0	39.3528117	1	18	59.1678052	0	62.7970327	11	518.8125	533.25	21	1	1	1	528	76.0894861	546.0555556	10	532.94	51.4165528	0	16	552.7142857	1	1	1	52.9238447	528	1	1	588	1	63.2335779	0	0	0	560.9444444	14	1	517.6	60.9393141	1	591.8181818	672.9285714	1	0	524.1904762	n/a	1
sub-50021	1	80.8606483	657.1	550.7777778	16	0	115.0417163	19	111.1161439	n/a	60.83	12	0	0	90.041182	n/a	0	89.2300398	1	19	84.9560671	0	85.9055309	10	562.25	596.27	17	1	1	1	570	77.2349538	598.5	9	585.73	98.7424234	0	16	638.4736842	1	1	1	103.7675019	611.5	1	0.9791667	645.5	1	83.1949107	0	0	0	673.2631579	15	1	608.8333333	80.5208424	1	659	627.6666667	1	0	587.2352941	n/a	1
sub-50022	1	163.8836986	685.45	672.75	16	0	150.5230624	14	194.516302	n/a	71.43	5	0	0	257.4923534	n/a	0	139.6594519	1	12	336.0517169	0	201.090719	6	677.6153846	614.02	16	1	1	1	569	318.5933801	631.6875	8	626	144.3572969	0	13	635.5	1	1	1	198.3465582	583	1	0.893617	644.5	1	203.3867503	0	0	0	713.75	18	1	602	161.8131639	0.9375	675.3333333	730.2777778	1	0	604.6875	n/a	0.9782609
sub-50023	1	89.5576165	741.81	581.875	16	0	105.8144962	19	112.7630966	n/a	155.43	10	0	0	119.3681336	n/a	0	137.1980169	1	17	147.2196933	0	108.5409248	6	609.9333333	586.38	17	1	1	1	634.5	91.6303651	652.6875	8	638.42	100.2703331	0	15	602.4736842	1	1	1	164.25106	582.5	1	0.9375	730.5	1	160.0197904	0	0	0	784.4117647	15	1	635.6	146.3057681	0.9791667	709.8333333	717.1333333	1	0	572.5294118	n/a	1
sub-50025	1	220.5376142	957.55	922	15	0	171.6723966	18	234.2101248	n/a	68.4	7	0	0	256.8273482	n/a	0	228.3868272	1	18	203.3519836	0	264.6771371	8	942.8421053	889.15	17	1	1	1	874.5	157.391219	854.6	9	891.29	259.5926815	0	19	821.6666667	1	1	1	206.2395452	797.5	1	1	926.5	1	201.5389681	0	0	0	1045.8888889	16	1	910.4285714	104.844102	1	920.625	894.4375	1	0	906.1176471	n/a	1
sub-50027	1	40.8010076	628.21	542	17	0	95.5739456	18	93.9150438	n/a	47.63	7	0	0	133.4971445	n/a	0	119.0565857	1	17	89.4352386	0	201.1324556	10	577.4761905	580.58	20	1	1	1	557	77.240838	577.2941176	3	573.77	102.3972013	0	21	570.5555556	1	1	1	48.5901225	566.5	1	1	607.5	1	98.9315774	0	0	0	663.5294118	18	1	549.4285714	88.2720362	1	589.5	602.8333333	1	0	593.85	n/a	1
sub-50029	1	122.1661632	900.36	1056.25	18	0	212.9778451	16	225.7066199	n/a	-36.24	6	0	0	262.6818992	n/a	0	145.5663382	1	19	215.8796622	0	125.5042461	7	914.2	936.6	17	1	1	1	863.5	157.3380381	835.1666667	4	910.98	251.9183896	0	15	912.6875	1	1	1	382.1364285	886	1	1	860	1	197.2402671	0	0	0	921.7368421	14	1	1024.8333333	294.6526203	0.9791667	818.7142857	903.7857143	1	0	932	n/a	1
sub-50032	1	64.9138623	716.46	674.6363636	20	0	186.1570909	16	211.3372727	n/a	112.02	7	0	0	226.8956043	n/a	0	181.4700497	1	18	79.6770956	0	179.3822096	7	543.8571429	604.44	15	1	1	1	556.5	300.3287478	653.7	11	618.23	133.5415755	0	14	637.9375	1	1	1	339.6778688	548.5	1	1	670	1	174.4468754	0	0	0	729.7222222	19	1	631.7142857	169.1525094	0.9583333	594.1428571	770.3684211	1	0	530.9333333	n/a	0.9791667
sub-50033	1	148.1985155	975.86	683.2	10	0	198.1336009	15	262.5505819	n/a	152.56	10	0	0	344.6768427	n/a	0	253.8398445	1	13	215.4620285	0	226.2594948	5	766.8	823.3	11	1	1	1	733.5	275.7437536	829	10	794.79	332.1961633	0	15	816.9333333	1	1	1	53.0257799	736	1	0.8863636	931	1	220.3673875	0	0	0	965.7692308	17	1	714.9	104.6225491	0.9583333	862.6	1003.6470588	1	0	905.9090909	n/a	0.9148936
sub-50034	1	97.3791164	718.88	608	18	0	121.0241325	14	148.5789767	n/a	51.98	9	0	0	103.6737159	n/a	0	109.2336346	1	20	118.2736234	0	108.2679911	13	634.125	666.9	23	1	1	1	635.5	105.5617872	626.8888889	3	622.94	177.6060058	0	16	647.0714286	1	1	1	106.5082156	640.5	1	1	719	1	110.593064	0	0	0	719.8	11	1	622.1111111	115.9336496	0.9791667	739.7692308	673.0909091	1	0	689.5652174	n/a	1
sub-50035	1	55.3917864	585.42	435.3333333	19	0	61.3310348	16	63.8418369	n/a	87.84	6	0	0	89.2807747	n/a	0	58.0448506	1	16	56.2165085	0	84.990171	4	492.8125	497.58	19	1	1	1	490.5	68.6510786	513.2631579	6	501.38	70.2040468	0	16	501.1875	1	1	1	25.9743463	485	1	0.8958333	565.5	1	57.4891757	0	0	0	597.4375	17	1	479	67.9117074	1	525.25	594.7058824	1	0	507.9473684	n/a	1
sub-50036	1	65.6170709	510.25	464.125	16	0	39.5429011	13	53.3762862	n/a	55.94	6	0	0	66.9574333	n/a	0	36.9246417	1	16	33.9259574	0	60.0965543	10	456.5	454.31	22	1	1	1	450.5	73.0660046	446.6875	8	454.4	43.5895108	0	18	446.8461538	1	1	1	59.6595999	450.5	1	0.9166667	524.5	1	45.8395628	0	0	0	503.5625	13	1	467.6666667	65.9080167	0.9791667	519.6	521.8461538	1	0	446.0454545	n/a	1
sub-50038	1	104.1705333	709.48	780.4444444	16	0	99.4013073	19	104.6177693	n/a	33.1	8	0	0	89.9330696	n/a	0	88.0927305	1	16	136.981858	0	86.7599898	5	632.1764706	676.38	14	1	1	1	651	94.269621	662.9375	9	656.83	82.4408213	0	17	642.2105263	1	1	1	70.9702598	660	1	1	704.5	1	115.8427646	0	0	0	692.3125	18	1	703.625	98.8851245	0.9791667	707	717.9444444	1	0	678.7857143	n/a	1
sub-50043	1	163.1729701	652.1	640.4444444	20	0	100.9475982	14	127.7011537	n/a	42.87	10	0	0	128.0284609	n/a	0	112.1592383	1	21	105.6826787	0	123.4959995	11	553.6	609.23	21	1	1	1	556.5	113.1728313	565.7	9	580.08	124.4071848	0	15	629.4285714	1	1	1	162.0841688	583	1	1	605	1	120.3475169	0	0	0	663.1904762	13	1	591.6	116.9123128	1	656.7272727	657.6153846	1	0	592.3809524	n/a	0.9791667
sub-50047	1	203.3817224	962.21	824.8	14	0	130.2855712	18	133.8393749	n/a	95.69	13	0	0	147.9450672	n/a	0	157.2391613	1	14	131.2182501	0	130.9864518	8	816.6875	866.52	12	1	1	1	826	134.3801188	939	10	831.83	165.2334208	0	16	884.2777778	1	1	1	125.2169673	838.5	1	0.9791667	944.5	1	197.5187575	0	0	0	969.2857143	18	1	724.5384615	113.3399131	1	1013.875	917.6111111	1	0	842.0833333	n/a	1
sub-50048	1	88.4530635	778.29	672.4	18	0	65.8292931	16	97.3830632	n/a	65.46	6	0	0	101.9386462	n/a	0	82.5834496	1	17	74.5093756	0	116.3254815	9	692	712.83	19	1	1	1	698.5	102.9049521	691.5555556	10	692.1	99.113409	0	18	718.8125	1	1	1	135.1979619	706	1	1	765.5	1	79.3961893	0	0	0	802.6470588	16	1	625.6666667	25.311394	1	724.2222222	783.6875	1	0	716.6315789	n/a	1
sub-50049	1	59.4575479	732.85	651.5	12	0	88.4876148	24	100.3375663	n/a	76.75	8	0	0	108.5072778	n/a	0	138.6970756	1	17	76.4613192	0	102.8725654	6	605.25	656.1	9	1	1	1	603.5	108.2185357	602.1666667	8	609.81	110.6164545	0	16	663.8333333	1	1	1	82.7474644	651.5	1	1	717	1	97.4100035	0	0	0	730.4705882	19	1	606.75	108.6274761	0.9791667	723	714.8421053	1	0	617.3333333	n/a	0.9791667
sub-50050	1	99.3318207	562.02	494.125	17	0	90.2003874	14	80.7893214	n/a	50.67	9	0	0	83.5730002	n/a	0	68.8667725	1	20	119.3988146	0	79.0295581	12	486.9230769	511.35	19	1	1	1	471	47.4443214	494.4117647	8	482.85	83.3616443	0	13	500.4285714	1	1	1	92.3710491	503.5	1	0.9791667	554.5	1	86.5993439	0	0	0	549.25	11	1	481	70.4627561	0.9791667	596.4166667	551.8181818	1	0	524.0526316	n/a	1
sub-50051	1	154.8600751	648.62	638.5714286	9	0	82.6722976	14	171.5802841	n/a	91.32	6	0	0	192.4548291	n/a	0	90.4392061	1	9	191.3855608	0	84.9064845	8	619.3636364	557.3	17	1	1	1	596	114.114596	591	7	570.46	134.2402094	0	22	555.6428571	1	1	1	88.4738326	551	1	0.8510638	665	1	198.8925679	0	0	0	659.8888889	13	1	653.8333333	60.6775631	0.8958333	652.75	729.1538462	1	0	610.9411765	n/a	0.9574468
sub-50052	1	255.265548	974.88	756.2	10	0	250.4670032	12	413.3799056	n/a	127.45	3	0	0	478.7499662	n/a	0	184.1358496	1	11	263.9216003	0	159.6344688	2	900.8888889	847.43	8	1	1	1	668	268.8719491	799.7	5	805.21	104.5302417	0	9	889.5833333	1	1	1	119.6941937	704.5	1	0.9411765	868	1	429.4633878	0	0	0	1010.8181818	8	1	959.6666667	573.6761572	1	937.5	1080.875	1	0	708.5	n/a	1
sub-50053	1	116.8910224	688.56	608.6666667	15	0	71.3954398	17	79.474044	n/a	91	7	0	0	142.1367197	n/a	0	128.5048452	1	15	75.978067	0	116.233263	10	566	597.56	22	1	1	1	560.5	133.6323314	590.0666667	6	579.85	86.9690695	0	22	614.9411765	1	1	1	62.8002123	586.5	1	0.9791667	638.5	1	95.8027649	0	0	0	655.8	15	1	562.8571429	64.5043372	1	664.8	678.2	1	0	581	n/a	0.9791667
sub-50054	1	55.7545215	617.96	560.1818182	14	0	150.0421958	20	161.3465885	n/a	43.5	8	0	0	163.2378285	n/a	0	155.6421826	1	16	109.709718	0	146.7572684	6	586.8888889	574.46	13	1	1	1	558	86.9546685	593.2142857	11	587.21	231.8234021	0	18	565.85	1	1	1	86.1043764	548.5	1	0.9574468	605	1	121.2042339	0	0	0	631.6875	18	1	530	88.2917243	1	639.1666667	589.0555556	1	0	574.3846154	n/a	1
sub-50055	1	49.5378643	598.46	484	13	0	85.2637155	23	79.895452	n/a	77.77	8	0	0	86.8696647	n/a	0	44.1804284	1	20	62.8524216	0	105.8780207	6	511.7368421	520.69	16	1	1	1	503.5	64.4683062	529.9230769	6	504.15	84.4013971	0	19	530.9130435	1	1	1	47.4594564	509.5	1	0.9791667	599	1	57.2720234	0	0	0	619.05	16	1	481.375	44.4777232	1	591	589.8125	1	0	510.5625	n/a	1
sub-50056	1	206.2299687	974	833.6666667	14	0	168.1803878	22	175.3435218	n/a	53.27	6	0	0	242.3542298	n/a	0	193.5114501	1	17	119.7251615	0	151.4500257	5	895.2857143	920.73	15	1	1	1	872.5	138.545177	868.7142857	6	872.72	209.2922996	0	21	925.5	1	1	1	117.617459	908.5	1	0.9574468	956	1	189.2021275	0	0	0	939.8823529	19	1	784.3333333	133.6931811	0.9787234	1147.6	939.8947368	1	0	933.1333333	n/a	1
sub-50058	1	313.8551063	985.67	648	5	0	173.6402411	16	212.1563795	n/a	216.03	9	0	0	279.4290785	n/a	0	48.4324272	1	13	179.3239141	0	224.0845765	9	713.2352941	769.64	14	1	1	1	720	230.6760026	786.8	4	750.58	206.184077	0	17	766	1	1	1	90.0185166	749	1	0.8333333	936	1	186.537525	0	0	0	1049.3076923	11	1	780	252.4163228	0.9583333	1029.4444444	882.2727273	1	0	775.2142857	n/a	0.9787234
sub-50059	1	163.9166455	821.88	789.6666667	13	0	73.175253	18	136.4914397	n/a	97.59	12	0	0	142.3360759	n/a	0	132.883504	1	14	137.1016814	0	146.8467842	10	696.85	724.29	15	1	1	1	706.5	128.6342855	730.7692308	9	714.42	97.2161558	0	20	667.1666667	1	1	1	202.5370337	699	1	1	812	1	123.3374257	0	0	0	795.1428571	17	1	729.4166667	102.7251039	1	906	773.8235294	1	0	710.5333333	n/a	1
sub-50060	1	77.8347901	635.33	626.4	16	0	66.0489329	14	128.3094922	n/a	63.64	9	0	0	92.2829445	n/a	0	268.4701101	1	13	128.6846274	0	85.4827918	11	608.5	571.69	16	1	1	1	593.5	85.8963551	698.75	10	634.88	170.6550126	0	16	518	1	1	1	105.9414933	560	1	0.9791667	626.5	1	188.0031264	0	0	0	588.8461538	17	1	585.5555556	85.9812641	0.9791667	643.3636364	655.9411765	1	0	589.25	n/a	0.9583333
sub-50061	1	153.0931452	874.56	661	12	0	110.681545	17	111.726458	n/a	190.14	9	0	0	172.4470818	n/a	0	243.2040389	1	10	137.8006331	0	180.8085544	10	688.3333333	684.42	16	1	1	1	683	178.9164683	712.25	7	702.58	133.0888018	0	24	655.8235294	1	1	1	81.7659261	666.5	1	0.9791667	876.5	1	166.4318701	0	0	0	971.2	20	1	727	153.2400078	1	877.2	841.55	1	0	720.6875	n/a	1
sub-50064	1	163.5736328	689.29	562	14	0	121.0488477	18	106.7424072	n/a	51.41	15	0	0	116.6954498	n/a	0	199.6473264	1	20	114.4651442	0	89.8967097	3	660.4615385	637.88	18	1	1	1	650	94.8030121	712.1428571	4	651.35	91.1623023	0	13	680.3333333	1	1	1	97.1219165	636	1	0.875	688	1	140.3688893	0	0	0	698.05	9	1	582.2	71.3264127	1	742.6666667	701.8888889	1	0	616.2777778	n/a	0.9583333
sub-50066	1	105.1181154	532	534.7777778	14	0	59.5632917	14	88.9331469	n/a	68.04	8	0	0	88.657361	n/a	0	64.2155111	1	14	61.7647489	0	93.3739086	12	441.4	463.96	20	1	1	1	433.5	75.2682821	462.3571429	9	446.67	61.2036076	0	20	439.3571429	1	1	1	148.1365736	452	1	0.9583333	539.5	1	81.3731445	0	0	0	562.0714286	15	1	383.875	42.9033382	1	498	534.8	1	0	448.75	n/a	1
sub-50067	1	84.7447147	573.4	529.1176471	21	0	98.0588046	16	137.415635	n/a	38.32	4	0	0	107.7147019	n/a	0	114.2049119	1	13	71.9534725	0	161.017677	4	504.9285714	535.08	11	1	1	1	492.5	52.807204	537.4761905	17	512.28	80.782874	0	14	536.9375	1	1	1	129.1229464	496	1	0.9583333	586	1	133.8280478	0	0	0	561.2307692	23	1	510	155.8139917	0.9787234	605.5	590.3478261	1	0	520.5454545	n/a	1
sub-50069	1	183.4536402	658	583.3076923	15	0	96.3019557	15	126.779245	n/a	73.21	11	0	0	159.1680498	n/a	0	110.4058746	1	17	129.3145873	0	163.8997183	7	614.5625	584.79	17	1	1	1	582	130.7106059	626.2	13	609.81	155.1665377	0	16	554.0666667	1	1	1	120.0058225	551	1	0.875	638	1	111.5091173	0	0	0	690.3529412	16	1	586.4545455	96.3632333	1	707.2857143	671.0625	1	0	609.1764706	n/a	1
sub-50073	1	237.122589	888.29	732.4	18	0	76.2950927	18	113.4075666	n/a	181.44	6	0	0	198.6154156	n/a	0	161.0799846	1	15	155.4287364	0	148.6522628	10	674.25	706.85	18	1	1	1	668.5	183.6831583	767.0555556	5	721.58	84.6113954	0	20	691.6666667	1	1	1	109.9854536	686	1	1	866.5	1	170.9578564	0	0	0	796.7333333	20	1	726.1666667	202.6024844	1	975.3	894.35	1	0	661.1666667	n/a	0.9791667
sub-50075	1	n/a	802.17	690.4285714	7	n/a	340.6273624	4	266.6086387	n/a	73.43	6	0	0	331.319509	n/a	0	94.5576166	1	5	234.9767985	-1	99.3161618	1	662.6875	728.74	17	0	1	1	627.5	125.8648867	533.1428571	14	680.85	259.1778432	0	16	621.5	1	1	1	265.1300738	674	1	0.4130435	740	1	230.1324626	0	0	0	617.2	12	1	646.1666667	202.8096809	0.9787234	574	599.1666667	1	0	753.8235294	n/a	1
sub-50076	n/a	n/a	n/a	n/a	n/a	n/a	n/a	n/a	n/a	n/a	n/a	n/a	n/a	n/a	n/a	n/a	n/a	n/a	n/a	n/a	n/a	n/a	n/a	n/a	n/a	n/a	n/a	n/a	n/a	n/a	n/a	n/a	n/a	n/a	n/a	n/a	n/a	n/a	n/a	n/a	n/a	n/a	n/a	n/a	n/a	n/a	n/a	n/a	n/a	n/a	n/a	n/a	n/a	n/a	n/a	n/a	n/a	n/a	n/a	n/a	n/a	n/a	n/a	n/a	n/a
sub-50077	1	197.4338949	625.62	584.1428571	14	0	105.0248648	18	154.5636947	n/a	53.64	8	0	0	173.1058996	n/a	0	114.1816559	1	16	140.727616	0	103.163927	7	575.5238095	571.98	19	1	1	1	509.5	113.0856976	526.7142857	7	554.6	155.7166417	0	21	563.1111111	1	1	1	166.426589	525	1	0.9361702	586.5	1	139.6668894	0	0	0	599.4375	17	1	593.5	201.2177215	1	722.1428571	626	1	0	542.6842105	n/a	1
sub-50080	1	94.0263388	566.98	476	10	0	67.8976591	20	68.9427633	n/a	86.02	8	0	0	90.2986745	n/a	0	89.8448663	1	14	61.2546208	0	100.1363905	7	443.1428571	480.96	14	1	1	1	460	80.3363502	498.1	9	478.6	53.3446703	0	21	464.25	1	1	1	73.6172534	482.5	1	0.9166667	566	1	109.7105941	0	0	0	551.2857143	16	1	487	88.1476035	0.9791667	625.5714286	564.9375	1	0	496.5	n/a	1
sub-50081	1	147.9125117	703.81	579.6875	15	0	87.3371417	20	121.4181696	n/a	66.41	11	0	0	136.2614284	n/a	0	67.586981	1	11	252.7310242	0	112.4849081	9	612.8333333	637.4	9	1	1	1	580.5	144.9719551	609	16	615.75	180.8410905	0	18	631.25	1	1	1	83.7621384	622.5	1	1	725	1	167.0960356	0	0	0	733.6363636	24	1	620.3636364	104.7217959	0.9791667	688.8888889	676.7916667	1	0	704.3333333	n/a	1
sub-50083	1	95.5106576	735.1	581.2222222	16	0	78.1309233	17	108.6310836	n/a	119.5	11	0	0	94.6294542	n/a	0	76.5026143	1	16	96.7991021	0	73.5317392	8	604.7647059	615.6	15	1	1	1	597	73.8945839	634.875	9	622.96	111.5013133	0	17	613.7647059	1	1	1	59.6757442	610	1	0.9583333	732	1	100.581492	0	0	0	725.125	15	1	602.0909091	109.8102496	1	711	752.5333333	1	0	597.6	n/a	1
sub-50085	1	124.1086889	768.73	657.1	16	0	95.8911761	17	102.2861981	n/a	145.44	9	0	0	143.4474831	n/a	0	66.3837016	1	14	90.4202885	0	93.9073661	6	663.6	623.29	13	1	1	1	623	192.906016	606.4375	10	624.5	90.3517343	0	15	653.6470588	1	1	1	132.6963535	599	1	1	742.5	1	79.2491358	0	0	0	768.8571429	19	1	604.8888889	92.0454296	1	757.1666667	799.7894737	1	0	576.4615385	n/a	1
sub-60001	1	115.1086443	766.35	696.5	17	0	94.2210839	23	83.52916	n/a	78.18	9	0	0	154.1816405	n/a	0	97.0979266	1	18	121.6256943	0	198.0086896	4	654.3333333	688.17	11	1	1	1	655	125.4705429	659.4117647	12	650.52	70.7980483	0	15	699.6086957	1	1	1	57.2069608	685.5	1	1	763.5	1	93.3212228	0	0	0	794.5	22	1	647.1111111	62.2343242	1	799	735	1	0	665.1818182	n/a	1
sub-60005	1	186.5986909	775.13	626	21	0	80.7063596	14	112.9308593	n/a	110.19	8	0	0	144.2376327	n/a	0	105.2333009	1	18	82.3205118	0	153.329156	8	640.3333333	664.94	18	1	1	1	638	127.5413684	649.047619	8	648.54	142.1512244	0	15	690.8571429	1	1	1	67.4515699	650	1	1	765	1	96.6452073	0	0	0	781.7777778	18	1	636.75	104.8669225	1	820.25	742.2777778	1	0	668.1666667	n/a	1
sub-60006	1	104.5318931	510.19	458	14	0	93.8478134	14	132.0112406	n/a	4.59	7	0	0	169.8181325	n/a	0	86.8363688	1	17	114.9997213	0	165.3924255	4	513.4615385	505.6	14	1	1	1	471	91.781757	539.6428571	3	492.75	172.8895506	0	13	523.7857143	1	1	1	86.0697392	487	1	0.8125	500	1	133.4849581	0	0	0	507.8235294	11	1	604.4285714	160.0248493	0.8125	430.75	576.9090909	1	0	518.2142857	n/a	0.9166667
sub-60008	1	107.187177	700.56	595.5714286	17	0	88.6143329	13	102.9977535	n/a	107.68	10	0	0	164.5557406	n/a	0	125.2357189	1	19	80.6450982	0	138.2880501	11	576.6428571	592.88	18	1	1	1	579.5	242.9074272	603.8823529	7	581.02	110.6111366	0	14	602	1	1	1	92.2909478	588	1	0.9166667	669.5	1	98.8231796	0	0	0	698.1578947	11	1	548.2	66.2332578	1	715.9090909	755.7272727	1	0	564.3333333	n/a	1
sub-60010	1	52.6333228	568.15	541	15	0	66.6722792	18	83.710682	n/a	90.88	11	0	0	95.3894569	n/a	0	86.3190648	1	15	58.314787	0	89.9694128	6	478.4444444	477.27	18	1	1	1	469.5	87.9165751	488.5333333	6	479.73	49.5669152	0	18	505.3888889	1	1	1	152.261617	450	1	0.9583333	569.5	1	76.1238463	0	0	0	599.2666667	14	1	473.6363636	92.853942	0.9583333	521.3333333	549.3571429	1	0	431.9444444	n/a	1
sub-60011	1	79.7279402	687.48	612.1428571	17	0	98.8372399	16	109.0322924	n/a	60.94	5	0	0	134.914944	n/a	0	200.1202947	1	14	94.0207659	0	164.1973484	10	586.8235294	626.54	14	1	1	1	592	86.8014067	647.4117647	14	628.38	88.5800377	0	17	647	1	1	1	121.3943714	612	1	0.9791667	646	1	158.7577607	0	0	0	685	20	1	694.6	170.5939624	1	637.1	689.8	1	0	592.5	n/a	1
sub-60012	1	54.032618	662.85	660.8333333	17	0	179.1587178	14	161.9286888	n/a	-3.72	7	0	0	80.9812139	n/a	0	92.416775	1	18	95.6834582	0	107.7345443	15	673.3571429	666.57	19	1	1	1	640	64.8351954	614.1176471	6	643.08	121.245944	0	14	703	1	1	1	59.6771872	637	1	1	647.5	1	95.1403964	0	0	0	678.4444444	13	1	642	90.9487035	1	643.6666667	653.5384615	1	0	656.3684211	n/a	1
sub-60014	1	51.099343	600.88	496.4444444	23	0	93.4336906	11	107.3937356	n/a	72.65	7	0	0	158.1811008	n/a	0	97.3278149	1	19	124.3228203	0	230.8460919	7	599.8181818	528.23	18	1	1	1	548.5	88.2873858	536.3913043	9	556.56	102.4240353	0	11	548.3636364	1	1	1	90.3840571	516.5	1	0.9791667	571.5	1	106.9873538	0	0	0	647.1578947	16	1	529.2857143	79.1490457	0.9791667	588.1428571	571.5625	1	0	514.2777778	n/a	0.9166667
sub-60015	1	61.7694639	544.92	442.5	18	0	86.2615721	18	68.073773	n/a	72.48	11	0	0	56.4510081	n/a	0	82.7144075	1	19	52.1344977	0	57.3309873	6	459.6842105	472.44	20	1	1	1	464	53.8951187	487.5555556	6	475.94	60.891275	0	19	487	1	1	1	36.2146379	449.5	1	1	548	1	65.7106508	0	0	0	561.2105263	17	1	485	54.1811775	1	503.3333333	542.9411765	1	0	466.8	n/a	1
sub-60016	1	84.8392598	724.9	666.25	17	0	107.1850834	20	128.2200136	n/a	80.5	8	0	0	125.8347852	n/a	0	102.7485509	1	18	158.6166505	0	120.8126757	5	655.7777778	644.4	17	1	1	1	640	151.7185862	625.4705882	4	656.9	160.2960267	0	18	631.3	1	1	1	119.9010008	631	1	1	711	1	125.5207433	0	0	0	702.0555556	17	1	739.375	73.0458515	0.9791667	752.8	752.1764706	1	0	678.7647059	n/a	1
sub-60017	1	71.9512484	731.79	701.1	19	0	84.7455534	17	111.8364097	n/a	59.77	10	0	0	116.2907139	n/a	0	71.6461007	1	21	103.5809658	0	111.2252541	8	663.6428571	672.02	18	1	1	1	648.5	151.6502869	638.0526316	10	654.06	86.6879499	0	14	669.0588235	1	1	1	125.8450988	659	1	1	725	1	91.4024084	0	0	0	719.5714286	15	1	671	124.6301194	1	738.875	737.3333333	1	0	636.7222222	n/a	1
sub-60020	1	42.7001171	556.17	496.5454545	19	0	44.7162482	15	75.0305848	n/a	96.5	7	0	0	59.9632275	n/a	0	52.1364606	1	19	36.9499216	0	64.5149242	5	460.7142857	459.67	17	1	1	1	444.5	61.3454359	443.8947368	11	454.1	75.0873511	0	14	446.6	1	1	1	106.1803783	443	1	0.9583333	544.5	1	50.2331753	0	0	0	566.2105263	16	1	458.2857143	35.2453982	0.9791667	546.4	546.9375	1	0	447.1176471	n/a	1
sub-60021	1	116.1510772	952.44	857.9	18	0	154.2401652	15	149.092561	n/a	137.88	10	0	0	177.7170721	n/a	0	157.3015089	1	19	115.9185675	0	186.1594456	11	731.6	814.56	20	1	1	1	751	181.5787451	787	10	784.77	113.7737714	0	15	834.8	1	1	1	195.2795432	773	1	1	906	1	157.0274728	0	0	0	945.6842105	14	1	826.1	210.0393878	1	887.4545455	954.9285714	1	0	763.05	n/a	1
sub-60022	1	68.0139803	738.13	678	11	0	94.8882013	23	92.9026577	n/a	51.03	13	0	0	69.1952603	n/a	0	53.496304	1	18	85.6956057	0	73.4718834	12	662.5	687.1	15	1	1	1	641	64.6327768	660.3636364	5	653.69	106.2574143	0	20	690.0434783	1	1	1	37.702785	681	1	1	741.5	1	66.9639968	0	0	0	739	16	1	633.6923077	44.4885465	1	734.4166667	734.9375	1	0	678.2666667	n/a	1
sub-60028	1	71.928536	612.33	470.875	16	0	74.6576008	17	68.930736	n/a	110.81	9	0	0	115.044179	n/a	0	63.3035017	1	16	100.2881469	0	102.7137608	8	509.7777778	501.52	18	1	1	1	504.5	133.8944382	508.5	8	517.9	68.5103876	0	18	527.5882353	1	1	1	52.0423934	501	1	0.9583333	614	1	90.7967662	0	0	0	587.875	17	1	509.2222222	50.2538003	1	612.5	654.7058824	1	0	502.5555556	n/a	0.9791667
sub-60030	1	85.9141321	591.69	504	12	0	86.1553829	25	96.4572352	n/a	100.15	9	0	0	122.7275405	n/a	0	81.6126754	1	13	108.759039	0	208.4363028	7	482.8571429	491.54	9	1	1	1	477.5	75.0182586	506.0833333	12	490.27	110.9670872	0	21	480.2	1	1	1	110.7281684	476	1	1	575.5	1	93.2698532	0	0	0	606.7692308	24	1	492.6666667	105.3541646	1	589.2857143	581.5	1	0	507.7777778	n/a	1
sub-60033	1	151.303558	767.13	623.6923077	13	0	55.9852265	17	79.1386139	n/a	126.5	11	0	0	104.0050377	n/a	0	82.9904999	1	15	59.3759761	0	81.1877894	10	671.2777778	640.63	15	1	1	1	645.5	81.1473087	639.3846154	13	651.19	108.5099074	0	18	627.2941176	1	1	1	70.6769465	644.5	1	1	749.5	1	67.0863706	0	0	0	779.8	15	1	639.4545455	61.659328	1	773.9	746.8	1	0	662.4	n/a	1
sub-60036	1	142.3657262	731.6	632.8888889	19	0	43.2465798	15	85.278008	n/a	141.31	3	0	0	149.988757	n/a	0	80.798247	1	11	137.4485762	0	192.3935833	7	654	590.29	16	1	1	1	629.5	149.6368938	577.3684211	9	639.42	99.4530878	0	19	561.8666667	1	1	1	96.7747958	568.5	1	0.9375	714	1	131.5931566	0	0	0	737.9090909	21	1	662.3333333	65.5159014	1	744	720	1	0	579.875	n/a	1
sub-60037	1	59.9074683	642.81	516.7777778	17	0	63.997759	20	81.7874342	n/a	88.89	9	0	0	72.6137131	n/a	0	55.08396	1	20	63.4643253	0	68.9236038	7	559.2941176	553.92	17	1	1	1	555.5	80.6320619	554.3529412	9	553.88	105.7180977	0	17	554.35	1	1	1	62.6653369	541.5	1	1	638.5	1	66.1431796	0	0	0	650.4	17	1	521	73.5679958	1	591.2857143	649.8235294	1	0	578.2352941	n/a	1
sub-60038	1	73.8694553	545.44	551.2857143	10	0	51.374257	21	63.4047808	n/a	40.88	11	0	0	71.2027092	n/a	0	43.2975493	1	17	50.3634161	0	55.1379287	8	469.1578947	504.56	15	1	1	1	458	82.4904035	451.3	7	468.56	58.474903	0	19	491.2857143	1	1	1	40.4174644	503	1	0.9375	551.5	1	48.6764858	0	0	0	559.2352941	13	1	463.9090909	45.8660104	0.9791667	537.125	558	1	0	478.8	n/a	1
sub-60042	1	37.2290209	622.58	537.25	22	0	131.6968923	14	112.1050811	n/a	61.52	8	0	0	95.2941322	n/a	0	71.2152399	1	21	54.2820915	0	95.3511805	5	567	561.06	18	1	1	1	560	94.8096995	547.9090909	8	551.92	79.6498259	0	12	593.9285714	1	1	1	50.3891995	550	1	0.9583333	614	1	63.6746495	0	0	0	643.6190476	14	1	568.75	64.5285098	1	597	614.5714286	1	0	540.7222222	n/a	0.9791667
sub-60043	1	184.1637858	876.48	718.75	21	0	166.9940119	16	172.9921082	n/a	102.81	5	0	0	275.048155	n/a	0	206.0272982	1	16	177.2948462	0	265.3583426	5	738.5625	773.67	18	1	1	1	718.5	194.0416848	790.6190476	8	781.21	201.4617903	0	16	795.25	1	1	1	174.2041085	743	1	1	803.5	1	208.3064394	0	0	0	926.875	19	1	828	331.6149876	1	932.4	833.2105263	1	0	787.8333333	n/a	1
sub-60045	1	257.6280542	741.79	569.0833333	17	0	135.40183	10	116.3978184	n/a	148.41	6	0	0	248.008404	n/a	0	112.6709159	1	16	52.8318918	0	282.4587802	8	545.8571429	593.38	20	1	1	1	578.5	176.7191532	630.1176471	12	594.23	94.5481776	0	14	675.1	1	1	1	83.2198166	575	1	0.8125	674	1	119.8902405	0	0	0	817.1875	12	1	544.8333333	100.6407803	0.9791667	711.75	705.25	1	0	568.1	n/a	1
sub-60046	1	111.8323575	687.46	664.3333333	19	0	82.9911068	15	99.5013966	n/a	54.52	7	0	0	100.0384944	n/a	0	77.0556873	1	16	98.5262813	0	93.0200695	7	627.6111111	632.94	20	1	1	1	628.5	89.3220791	610.6315789	9	629.31	92.2816627	0	18	627.6666667	1	1	1	150.5988048	625.5	1	1	686.5	1	85.8202367	0	0	0	711.75	17	1	645.5714286	72.3368443	1	650.1428571	662.0588235	1	0	629.3	n/a	1
sub-60048	1	88.7100145	469.44	487.5714286	8	0	149.9856559	12	106.225164	n/a	7.15	9	0	0	100.217191	n/a	0	52.6794552	1	11	249.7752101	0	64.582998	6	534.1	462.29	12	1	1	1	445.5	85.9525409	438.375	7	487.6	38.6577837	0	10	504.6666667	1	1	1	136.2251288	430.5	1	0.6666667	459.5	1	211.447568	0	0	0	506.1818182	8	1	571.6666667	386.3068728	0.9583333	530.6666667	478.875	1	0	412.6666667	n/a	0.9791667
sub-60049	1	66.1550368	572.31	533.2857143	12	0	54.5195594	18	79.1546398	n/a	73.21	11	0	0	100.4344088	n/a	0	74.6306055	1	19	103.9380118	0	72.8612396	10	536.8823529	499.1	16	1	1	1	496	85.6261695	475.5	7	494.81	82.2078413	0	17	492.1666667	1	1	1	119.0961996	500	1	0.9166667	561.5	1	88.5006686	0	0	0	584.2631579	12	1	490	64.3257336	0.9583333	536.4	627.25	1	0	480.4375	n/a	1
sub-60051	1	44.4207159	625.81	614.5454545	15	0	67.1821249	18	99.0411455	n/a	40.33	11	0	0	131.590541	n/a	0	94.184065	1	19	60.977284	0	195.4687274	6	542.6875	585.48	15	1	1	1	532	62.9230823	562.7333333	11	553.02	91.1355349	0	16	549.4444444	1	1	1	103.0876944	567	1	0.9791667	601.5	1	78.6829051	0	0	0	630.3684211	15	1	545.2727273	63.7716095	1	622	624.2	1	0	577.4	n/a	1
sub-60052	1	142.0225711	739.79	655.1333333	17	0	79.8997028	16	99.356297	n/a	81.62	8	0	0	143.2603579	n/a	0	95.3275699	1	15	88.3908134	0	154.0512283	8	636.5384615	658.17	13	1	1	1	624	150.04789	632.7058824	15	640.94	114.4708562	0	13	679.3125	1	1	1	92.8192304	646	1	0.9375	731.5	1	130.4673117	0	0	0	750.7333333	18	1	604.25	81.1537342	0.9791667	755.125	720.3888889	1	0	640.9230769	n/a	1
sub-60053	1	74.1087039	548.35	505.6666667	20	0	60.8989641	17	61.4884525	n/a	40.6	5	0	0	75.9037715	n/a	0	50.0518415	1	22	60.8256832	0	82.8486337	10	483.0714286	507.75	20	1	1	1	488.5	73.6234305	507.85	9	490.58	62.9050036	0	14	487.9411765	1	1	1	56.945149	493	1	1	533	1	52.0817007	0	0	0	548.9090909	15	1	476.4	37.567273	1	547.9	545.5333333	1	0	519.25	n/a	0.9791667
sub-60055	1	76.471418	688.73	770	15	0	108.8949813	19	103.6391016	n/a	54.58	8	0	0	84.3676704	n/a	0	113.8038413	1	17	114.6533295	0	61.2270966	10	626.0526316	634.15	18	1	1	1	620.5	95.4649997	692.8	2	642.5	102.2237869	0	19	609.6842105	1	1	1	18.3847763	613	1	0.9791667	696	1	109.8627771	0	0	0	693.5882353	17	1	587	61.9239165	1	686.9	703.7647059	1	0	635.9444444	n/a	1
sub-60056	1	134.5099129	854.42	765	21	0	173.1184015	15	165.9225605	n/a	60.96	9	0	0	191.1644979	n/a	0	228.8098712	1	20	115.7354125	0	152.2121442	4	725.6	793.46	19	1	1	1	707.5	184.175901	766.5714286	11	748.33	151.9715655	0	15	799.5333333	1	1	1	195.950504	735.5	1	1	828	1	176.5182569	0	0	0	847.7	16	1	730.5555556	148.9958985	1	795.25	842.3125	1	0	807.3684211	n/a	1
sub-60057	1	55	630.9	492.4285714	18	0	53.5989327	17	70.2392536	n/a	88.92	8	0	0	116.4810713	n/a	0	71.5469817	1	18	95.7066833	0	119.5586109	3	559.4615385	541.98	16	1	1	1	552.5	120.0777016	570.5	7	561.58	78.1459905	0	13	541.7058824	1	1	1	64.6577068	536.5	1	0.8958333	629	1	77.0702452	0	0	0	646.4444444	17	1	508.125	47.1424513	0.9791667	648	658.8235294	1	0	546.5625	n/a	0.9791667
sub-60060	1	161.4782899	671.88	573.5	22	0	107.5923524	15	81.8051547	n/a	80.59	4	0	0	93.8839539	n/a	0	166.6683463	1	16	201.9995992	0	93.9478579	7	623.5333333	591.29	17	1	1	1	574.5	54.3589193	607.6363636	8	601.75	63.4093842	0	15	626.6	1	1	1	61.1017886	574.5	1	1	655.5	1	160.1042878	0	0	0	661.25	20	1	555.5	25.7228822	1	747.7142857	653.95	1	0	565	n/a	1
sub-60062	1	44.0983749	804.04	656.3333333	15	0	158.9425473	21	158.5728405	n/a	108.16	12	0	0	215.0337884	n/a	0	152.249263	1	20	125.8970459	0	262.6523167	4	654.7647059	695.88	16	1	1	1	584.5	185.1838514	651.4666667	6	630.3	175.279396	0	17	717.3333333	1	1	1	186.29618	680	1	1	747.5	1	153.358894	0	0	0	806.85	17	1	576.1666667	84.2364997	1	650	865.0588235	1	0	688.75	n/a	1
sub-60065	1	40.0849099	776.75	669.2222222	17	0	94.0580495	16	114.920322	n/a	114.23	9	0	0	176.8620691	n/a	0	80.5550597	1	18	82.6963301	0	162.8621956	6	582.7222222	662.52	19	1	1	1	588	236.0292973	600.6470588	9	618.38	141.5478965	0	18	685.625	1	1	1	107.8642408	658	1	0.9791667	751.5	1	163.1920452	0	0	0	734.2777778	16	1	620.8888889	82.1255813	1	771	826.6875	1	0	633.8421053	n/a	1
sub-60066	1	42.5975771	594.94	500.7272727	18	0	35.5787858	16	40.1099497	n/a	103.42	6	0	0	70.1082465	n/a	0	59.7171164	1	16	34.1398472	0	64.6234929	8	481.9375	491.52	16	1	1	1	492	64.1565755	509.6111111	11	500.08	46.5184103	0	16	487.375	1	1	1	42.9490184	484	1	0.9791667	591	1	49.7383936	0	0	0	623.0625	17	1	518.5	40.746779	1	606.375	578.7647059	1	0	496.6875	n/a	1
sub-60068	1	68.2632605	810.47	667.3333333	16	0	150.0393282	16	150.7500382	n/a	57.99	6	0	0	185.290552	n/a	0	85.8250158	1	10	195.2722763	0	140.1968457	11	772.5238095	752.48	15	1	1	1	724.5	158.8210766	721.25	9	741.5	124.5325354	0	21	816.25	1	1	1	135.5064574	727.5	1	1	793	1	147.7564125	0	0	0	886.6	23	1	701.6666667	138.320883	1	734.5454545	832.0434783	1	0	728.2666667	n/a	0.9583333
sub-60070	1	98.5399665	566.88	559.25	16	0	114.0263128	18	107.710136	n/a	32.75	6	0	0	77.3152224	n/a	0	81.2908103	1	18	110.5192688	0	96.9468556	8	522.7894737	534.13	17	1	1	1	516	41.6317187	520.0625	8	525.75	93.4718816	0	19	563.6666667	1	1	1	134.8944031	531.5	1	0.9791667	568.5	1	93.0610644	0	0	0	570.8888889	16	1	523.6666667	118.0892318	1	544.875	581	1	0	491.3529412	n/a	0.9791667
sub-60072	1	132.6339257	645.13	569.6363636	10	0	79.4275475	18	70.9119797	n/a	93.92	11	0	0	113.3453816	n/a	0	67.8137974	1	13	114.8829559	0	115.3613609	14	577.2631579	551.21	15	1	1	1	550.5	98.460918	549.6	11	568.67	62.021732	0	19	554.1666667	1	1	1	72.5703421	542	1	1	619	1	102.9317752	0	0	0	622.9230769	15	1	569.1818182	84.0081165	1	661.7142857	634.1333333	1	0	530.1333333	n/a	1
sub-60073	1	46.9107562	619.42	520.8461538	18	0	46.2527477	16	71.0418635	n/a	91.19	10	0	0	76.0108708	n/a	0	67.141763	1	19	61.4226635	0	73.8319967	7	527.0769231	528.23	17	1	1	1	526.5	71.9869697	517.6111111	13	524.4	89.2207688	0	13	546.625	1	1	1	73.9727947	527	1	0.9791667	610.5	1	69.6449169	0	0	0	621.9473684	15	1	493.9	67.3786151	1	596.4285714	634.1333333	1	0	515.2941176	n/a	1
sub-60074	1	129.1863963	847.48	915.7142857	20	0	152.3862053	18	133.5068712	n/a	4.63	8	0	0	105.1740178	n/a	0	91.7206285	1	24	138.139124	0	112.1192106	8	730.4285714	842.85	21	1	1	1	791	80.1899188	797.4	7	794.6	127.8888654	0	14	856.5555556	1	1	1	54.0638952	871.5	1	1	837.5	1	142.9339588	0	0	0	826.25	14	1	871.625	111.0417393	1	881.375	869.5	1	0	814.5238095	n/a	1
sub-60076	1	63.8811396	667.21	557.6	21	0	75.7840957	16	104.5167196	n/a	98.71	7	0	0	172.7195437	n/a	0	88.7225477	1	22	90.4588122	0	137.913895	5	530.2142857	568.5	18	1	1	1	530.5	217.7800988	553.0952381	5	540.33	136.2208415	0	14	574.8125	1	1	1	97.9913261	556	1	0.9375	659	1	97.694995	0	0	0	686.6363636	15	1	487	63.7468953	1	581.4	718.2	1	0	566	n/a	1
sub-60077	1	62.4286259	589.54	567.125	12	0	122.9403921	25	118.1549575	n/a	23.08	9	0	0	95.4443044	n/a	0	78.22733	1	15	83.2655248	0	76.7204573	3	566.3809524	566.46	10	1	1	1	551	97.8334237	564.6666667	8	562.13	132.0135094	0	21	555.56	1	1	1	50.6315472	546.5	1	0.9166667	589.5	1	84.8552271	0	0	0	556.2	22	1	524.1111111	78.2854464	1	593.6666667	614.9545455	1	0	549.7	n/a	1
sub-60078	1	161.1381395	822.89	805	17	0	209.2867439	17	298.2749807	n/a	-16.39	5	0	0	296.0346413	n/a	0	130.7874904	1	16	212.7736781	0	234.7718662	6	703.9333333	839.28	15	1	1	1	715	183.9784195	796.6470588	6	773.02	298.5791273	0	15	815.7647059	1	1	1	180.6565803	790.5	1	0.9777778	713.5	1	230.3476405	0	0	0	857.6875	17	1	700.6	139.1610578	1	764.5	806.0588235	1	0	937.7333333	n/a	0.9782609
sub-60079	1	48.9699454	666.33	529.4	15	0	76.3089441	14	126.1323868	n/a	115.93	9	0	0	93.1921678	n/a	0	113.9357379	1	13	105.8589864	0	111.3879223	10	613	550.4	15	1	1	1	607.5	74.3788988	605.2666667	10	604.23	89.2985895	0	17	558.1428571	1	1	1	109.1565644	541.5	1	1	650.5	1	109.4054026	0	0	0	693.5384615	17	1	552.6666667	107.8714513	0.9791667	651.5	622.2941176	1	0	544.6666667	n/a	0.9787234
sub-60080	1	86.9563725	552.54	497.1428571	17	0	52.7575214	12	66.2132676	n/a	24.41	5	0	0	107.5015999	n/a	0	51.471937	1	14	97.8028143	0	68.4200022	8	504.2380952	528.13	19	1	1	1	513.5	123.8042642	537.1176471	7	521.94	78.8100834	0	21	538.5833333	1	1	1	78.8826736	527.5	1	0.875	556	1	81.9230065	0	0	0	556.7142857	16	1	565.2	115.0856203	1	521.625	589.8125	1	0	536.8421053	n/a	0.9791667
sub-60084	1	67.2898846	651.77	571.5	18	0	98.7492368	18	90.36348	n/a	68.14	6	0	0	96.8106816	n/a	0	114.334005	1	20	95.0988478	0	91.4007371	8	591.5555556	583.63	20	1	1	1	585.5	118.2247683	595.5	6	597.94	91.7606153	0	18	595	1	1	1	39.7076819	576.5	1	1	643.5	1	96.938104	0	0	0	647.9	16	1	587	87.4619917	1	673.75	647.1875	1	0	565.7	n/a	1
sub-60087	1	88.7085114	680.79	561.1818182	20	0	202.8552552	11	155.8726962	n/a	69.31	8	0	0	177.0887454	n/a	0	153.2433909	1	15	170.2689803	0	125.0353474	5	597.7692308	611.48	17	1	1	1	584	80.8501304	639.8	11	596.58	146.3113371	0	13	634.6363636	1	1	1	156.2324026	606.5	1	0.875	674.5	1	152.8084371	0	0	0	710.1333333	13	1	502.75	104.5121319	0.9791667	693.2	668.0769231	1	0	632.5882353	n/a	0.9791667
sub-60089	1	85.543083	632.52	501.5	16	0	53.1776296	17	81.5505652	n/a	139.14	12	0	0	104.4625535	n/a	0	72.4442027	1	17	53.4524321	0	101.6360288	7	514.6875	493.38	17	1	1	1	512.5	112.8461342	507.8125	8	522.46	65.1347021	0	16	487.8823529	1	1	1	109.3186692	478.5	1	0.9791667	637	1	85.0278949	0	0	0	654.4117647	16	1	509.0833333	74.1282161	1	642.5714286	614.375	1	0	476.8235294	n/a	1
sub-70001	1	133.980098	623.25	602.8571429	19	0	79.73956	13	97.2326645	n/a	50.27	10	0	0	119.1559857	n/a	0	104.7417878	1	16	214.2701455	0	105.3483112	7	650.1333333	572.98	19	1	1	1	594	126.7810284	610.2105263	7	610.58	96.9589652	0	15	584.3076923	1	1	1	148.8393189	567	1	0.9375	625.5	1	149.796576	0	0	0	636	16	1	544.4	104.4968899	1	639	647.3125	1	0	581.4736842	n/a	1
sub-70002	1	184.3194045	858.81	700.25	15	0	149.5735048	21	145.2923914	n/a	81.5	11	0	0	134.2754641	n/a	0	135.3351396	1	21	121.0054386	0	112.7080933	8	741.2352941	777.31	17	1	1	1	758.5	147.4039477	772.2	4	750.88	164.7148159	0	17	767.6666667	1	1	1	60.9118215	763	1	1	864.5	1	131.6151102	0	0	0	850.2857143	15	1	703.6363636	151.9778094	1	897.75	840.0666667	1	0	807.2941176	n/a	1
sub-70004	1	126.749096	537.29	479.5	15	0	68.4258419	16	69.1697983	n/a	60.87	7	0	0	114.2468321	n/a	0	59.6389933	1	15	69.4978852	0	101.6315943	3	476.5714286	476.42	15	1	1	1	485.5	88.2863823	507.3333333	10	492.13	59.7715492	0	14	473.3125	1	1	1	85.1185448	463.5	1	0.875	535	1	67.0257572	0	0	0	585.5333333	17	1	482.1428571	65.440631	0.9791667	588.3333333	496.1176471	1	0	474.9333333	n/a	0.9791667
sub-70007	1	42.6148774	572.4	422	19	0	78.6849996	16	83.0832462	n/a	113.46	3	0	0	106.1483786	n/a	0	86.4516902	1	14	63.7542155	0	101.4884825	9	460.75	458.94	14	1	1	1	476	101.1653675	483.6842105	10	471.79	78.6315654	0	16	466.4375	1	1	1	80.9608959	435	1	0.9375	560.5	1	78.0648825	0	0	0	614.7142857	20	1	466	99.7396611	0.9375	599.5555556	534.3	1	0	454	n/a	1
sub-70010	1	53.8578376	628.63	592.4285714	20	0	65.475312	14	98.5067747	n/a	86.86	11	0	0	73.9484078	n/a	0	70.2839916	1	17	72.2965824	0	71.1906616	6	524.4375	541.77	17	1	1	1	519.5	75.7670094	522.45	7	532.38	90.8597416	0	16	528.3571429	1	1	1	150.2862348	524.5	1	0.9583333	629.5	1	83.1449964	0	0	0	619.8823529	17	1	553.2727273	116.5032969	1	623.6666667	644.4705882	1	0	525.3529412	n/a	1
sub-70015	1	118.8720801	682.79	532.8	16	0	110.3470095	16	85.815898	n/a	114.6	10	0	0	112.1588839	n/a	0	43.8276454	1	13	86.8064484	0	88.8680237	8	544.7777778	568.19	14	1	1	1	539.5	107.4525477	559.0625	10	543.6	55.9417377	0	18	580.0625	1	1	1	91.1991715	563.5	1	0.9583333	694	1	73.7568575	0	0	0	685.7692308	20	1	520.3	90.6275038	1	646	702.05	1	0	565.3571429	n/a	1
sub-70017	1	55.7760403	506.69	423.625	13	0	53.9249241	13	39.8141906	n/a	82.71	9	0	0	81.9483896	n/a	0	37.1155507	1	12	39.0508718	0	90.7348785	6	414.1666667	423.98	13	1	1	1	418	92.2336974	438.3076923	8	425.63	26.8767367	0	18	421.6923077	1	1	1	44.9060527	417	1	0.8333333	496.5	1	42.1580739	0	0	0	525.5	14	1	429.3333333	52.9315596	0.9791667	505.8333333	526.1428571	1	0	416.2307692	n/a	1
sub-70020	1	177.2156251	775.75	529.7777778	17	0	137.5832962	18	125.8492833	n/a	170.9	13	0	0	129.0141836	n/a	0	81.2734129	1	19	105.6246378	0	117.2748309	10	596.3076923	604.85	14	1	1	1	561	100.162181	544.6470588	9	569.52	136.2669487	0	13	640.1111111	1	1	1	78.2572325	570.5	1	1	755.5	1	98.8566531	0	0	0	730.0526316	16	1	528.0769231	49.7099278	1	804.4	795.0625	1	0	582.7142857	n/a	1
sub-70021	1	69.2167059	577.06	461	17	0	81.051894	15	89.6885766	n/a	97.52	12	0	0	100.4450535	n/a	0	67.8345739	1	21	63.9426827	0	101.8466167	7	515.5	479.54	21	1	1	1	494	94.2585687	477.8235294	7	490.31	88.723487	0	16	482.1333333	1	1	1	91.8604013	476	1	0.9166667	575.5	1	66.1964055	0	0	0	592.6666667	10	1	465	63.5352443	1	584.4285714	563.3	1	0	472.5714286	n/a	1
sub-70022	1	89.1184605	678.85	698.5	20	0	109.1869401	12	119.5032252	n/a	48.33	8	0	0	119.3382444	n/a	0	119.9666182	1	18	81.6349343	0	121.7124142	10	582.5625	630.52	22	1	1	1	630	149.7112459	666.1	12	635.79	87.7135736	0	16	586.8333333	1	1	1	163.0033463	600	1	1	640.5	1	106.0118336	0	0	0	654.5	15	1	661.25	92.3266716	1	718.1	686.8	1	0	614.3636364	n/a	1
sub-70026	1	112.8665633	655.1	542.125	14	0	97.0047024	19	92.1839603	n/a	88.33	8	0	0	89.9217721	n/a	0	83.8489288	1	14	102.9745692	0	54.4051246	9	544.8095238	566.77	17	1	1	1	538.5	95.8778463	550.2142857	8	549.79	102.1107746	0	21	584.6315789	1	1	1	78.1581501	533.5	1	0.9791667	648	1	89.4786218	0	0	0	660.0714286	19	1	531.125	73.8404409	1	670.1111111	660.6842105	1	0	569.1176471	n/a	1
sub-70029	1	39.6094024	584.73	532.25	20	0	68.6357536	16	110.8163914	n/a	20.79	5	0	0	53.8859077	n/a	0	78.509872	1	15	69.7898105	0	57.2683741	7	552.8333333	563.94	18	1	1	1	535	59.0837719	517.3	8	546.67	147.0898085	0	18	524.25	1	1	1	54.1393704	539	1	1	586.5	1	93.144439	0	0	0	574.3333333	20	1	609.4	141.2915426	0.9791667	577.2857143	586.55	1	0	608	n/a	1
sub-70033	1	71.9256561	620.21	492.1428571	18	0	105.7760668	20	80.570767	n/a	99.81	7	0	0	92.7430581	n/a	0	60.3121781	1	14	51.0173087	0	65.8201011	5	495.85	520.4	14	1	1	1	504	66.6780077	512.1666667	7	505.44	48.9893462	0	20	527.95	1	1	1	65.504271	496.5	1	0.9583333	623	1	58.1567604	0	0	0	596.8571429	22	1	510.5714286	70.6844093	0.9791667	609.6	627.6363636	1	0	511.5714286	n/a	1
sub-70034	1	199.3121505	527.67	483.8333333	12	0	55.7357401	11	78.6824995	n/a	64.82	4	0	0	108.9845457	n/a	0	91.294852	1	10	73.7424	0	96.578408	4	463.3181818	462.85	17	1	1	1	466	79.1292354	492.75	6	474.71	62.1361764	0	22	471.5454545	1	1	1	83.1298182	463.5	1	0.7083333	543.5	1	80.7446615	0	0	0	529.5	13	1	505	101.9378896	0.9583333	592	570.4615385	1	0	439.8235294	n/a	0.9583333
sub-70035	1	63.43951	661.96	599	19	0	89.9951851	16	103.1196286	n/a	53.17	9	0	0	68.9421461	n/a	0	53.3856651	1	22	67.0058794	0	52.316573	8	550.1666667	608.79	18	1	1	1	552.5	78.8558638	547.1578947	11	570.13	110.4590096	0	12	641.75	1	1	1	112.0455265	595.5	1	0.9791667	661.5	1	81.1915584	0	0	0	676.5	14	1	637.7777778	130.1717882	1	662.5	647.6428571	1	0	593.6111111	n/a	1
sub-70036	1	64.001598	604.79	470.75	20	0	59.5148568	11	72.5735595	n/a	90.6	10	0	0	63.9224791	n/a	0	74.4455117	1	16	85.1093673	0	47.8537703	12	559.7142857	514.19	18	1	1	1	497.5	56.4205584	512.65	12	522.79	87.5587011	0	14	531.7272727	1	1	1	47.3019796	504.5	1	0.9791667	598	1	85.1846451	0	0	0	621.625	17	1	491	81.9972899	0.9791667	603.75	586.8235294	1	0	519.9444444	n/a	1
sub-70037	1	63.5431135	595.85	481.2857143	12	0	67.2088044	19	58.0269563	n/a	80.6	7	0	0	66.9089536	n/a	0	45.6895817	1	13	64.546181	0	68.0820583	12	502.1304348	515.25	18	1	1	1	515	63.9259989	502.5833333	7	505.42	57.0056757	0	23	529.3684211	1	1	1	28.7733342	508.5	1	0.9791667	590.5	1	53.3215191	0	0	0	600	16	1	516.4285714	30.7400778	1	596.5	600	1	0	510	n/a	1
sub-70040	1	46.1984848	637.31	656.625	20	0	96.9454392	11	112.8351254	n/a	39.29	4	0	0	105.9096677	n/a	0	117.133527	1	17	100.0862449	0	95.9973575	5	610.6153846	598.02	19	1	1	1	603.5	61.9335507	605.5	8	595.44	95.8252247	0	13	521.2727273	1	1	1	104.4973513	600	1	0.9583333	633.5	1	109.0584279	0	0	0	630.6470588	17	1	656	108.7474138	0.9375	629.4	635.5294118	1	0	639.1578947	n/a	0.9583333
sub-70046	1	31.9255085	551.29	474.3333333	15	0	232.6723973	19	158.7796867	n/a	54.39	5	0	0	83.8707106	n/a	0	85.1219294	1	16	53.6488338	0	87.4105257	7	446.25	496.9	16	1	1	1	452.5	84.1629233	481.2	6	451.06	92.1389349	0	20	535	1	1	1	65.5977642	483.5	1	0.9375	550.5	1	68.5333918	0	0	0	564.75	19	1	435.4	82.3850715	0.9791667	538.2857143	560.7894737	1	0	476.375	n/a	1
sub-70048	1	250.7091276	757.19	574.7142857	16	0	91.3345499	17	128.0134617	n/a	149.38	8	0	0	176.9439936	n/a	0	115.4711364	1	18	224.5811551	0	186.2261346	10	662.8666667	607.81	18	1	1	1	619	118.0274926	651.875	7	677.54	86.0574364	0	15	631	1	1	1	98.9978355	597.5	1	1	720.5	1	193.4792263	0	0	0	755.9444444	14	1	762.625	305.6360756	1	844.2	709.7857143	1	0	603.3333333	n/a	0.9787234
sub-70049	1	85.4358109	663.17	589.5555556	14	0	91.2023445	17	105.5419629	n/a	60.02	7	0	0	113.6888874	n/a	0	75.7297102	1	14	129.3177543	0	103.2276105	9	621.85	603.15	17	1	1	1	573	77.0272212	556.7142857	9	584.31	117.0713081	0	20	591.6470588	1	1	1	102.7291477	597.5	1	0.9791667	627	1	114.0183181	0	0	0	705.3571429	18	1	512.5714286	57.8038555	1	626.4444444	620.3888889	1	0	632.7647059	n/a	1
sub-70051	1	60.2902701	499.79	420.5	15	0	48.2577216	13	60.9102351	n/a	64.46	6	0	0	85.0991808	n/a	0	71.3350912	1	11	51.5593105	0	73.381692	4	414.3125	435.33	14	1	1	1	422	70.9835662	456.8666667	6	442.92	74.7649798	0	16	415.8461538	1	1	1	55.5940644	419.5	1	0.8333333	504	1	67.765501	0	0	0	510.5454545	15	1	401.8333333	39.0098278	0.9375	471.75	518.6666667	1	0	445.5714286	n/a	0.9166667
sub-70052	1	90.0388805	662.33	645.5	17	0	164.5136325	18	168.8431645	n/a	70.66	8	0	0	198.9168899	n/a	0	184.6530929	1	15	164.0119624	0	158.7257293	4	583.7333333	591.67	14	1	1	1	562	101.236877	604.4705882	6	593.48	147.3877297	0	15	598.1666667	1	1	1	254.6611474	555.5	1	0.9166667	628	1	168.009117	0	0	0	693	20	1	573.75	76.0295995	1	564.5	657.8	1	0	572.2857143	n/a	1
sub-70055	1	108.4573649	528.31	423.7142857	19	0	106.5785739	12	90.3106538	n/a	58.14	4	0	0	115.1484068	n/a	0	56.2233433	1	11	45.1895276	0	131.8752165	9	432.3571429	470.17	17	1	1	1	431.5	94.4078683	447.7894737	7	458.52	69.5489671	0	14	496.0833333	1	1	1	40.6026037	462.5	1	0.8541667	533	1	75.3801683	0	0	0	600.4545455	17	1	450	70.9976525	0.9375	538	535.7058824	1	0	457.0588235	n/a	0.9583333
sub-70057	1	34.9814236	517.15	401.2	16	0	43.6782652	18	46.3454306	n/a	90.02	8	0	0	57.3269791	n/a	0	77.690733	1	19	38.9742562	0	44.4874646	5	415.3529412	427.13	16	1	1	1	421.5	53.1110103	433.875	10	427.17	50.2589544	0	17	437.4444444	1	1	1	27.3447131	421	1	0.9583333	520	1	52.7867381	0	0	0	525.6315789	17	1	428.125	33.2756346	1	533.2	522.8235294	1	0	422.3125	n/a	1
sub-70058	1	31.2022969	489.9	440.5	16	0	43.3861611	13	62.3044138	n/a	59.67	3	0	0	84.9889203	n/a	0	42.8499319	1	10	48.6202975	0	103.6191745	4	421.6666667	430.23	17	1	1	1	422	77.966517	414.625	6	422.54	75.4560643	0	21	410.2307692	1	1	1	24.1971073	423	1	0.8333333	493	1	51.7658223	0	0	0	508.6	19	1	422	19.4679223	0.9791667	505.25	513	1	0	425.6470588	n/a	1
sub-70060	1	77.1759799	628.31	590.6	11	0	59.3146038	19	76.9986529	n/a	73.93	10	0	0	85.2526049	n/a	0	85.2624824	1	19	54.2460005	0	82.0967551	14	531.8571429	554.38	20	1	1	1	527.5	107.0432863	552.0909091	5	536.88	65.3601158	0	21	538	1	1	1	115.3442673	549.5	1	1	624	1	60.4777522	0	0	0	625.8947368	12	1	529.4	54.0559381	1	620.8571429	653.5833333	1	0	545.55	n/a	1
sub-70061	1	98.1780695	857.23	874.125	15	0	177.2978735	18	196.7897037	n/a	80.17	6	0	0	180.9421254	n/a	0	141.0596632	1	15	112.4115737	0	152.9639547	10	696.5238095	777.06	18	1	1	1	701	193.9567114	720.6	8	733.42	182.0747171	0	21	774.2222222	1	1	1	283.2018147	727	1	1	851	1	161.122371	0	0	0	872.4	18	1	912.8333333	233.6496665	1	816.4	834.5	1	0	723.4444444	n/a	1
sub-70065	1	56.2656039	603.35	522.3571429	15	0	51.5877011	11	73.6493965	n/a	77.37	12	0	0	89.0528147	n/a	0	59.847982	1	13	73.4121624	0	89.0401091	12	552.2941176	525.98	17	1	1	1	539.5	84.3393373	546.0666667	14	544.65	62.7659635	0	17	511.0909091	1	1	1	77.2126007	519.5	1	0.9375	593.5	1	71.7760968	0	0	0	590.1538462	15	1	511.5833333	72.2916547	1	608	611.1333333	1	0	534.7647059	n/a	0.9791667
sub-70068	1	39.201577	579.75	528.6	17	0	60.2006368	16	69.8987838	n/a	74.98	12	0	0	75.6029663	n/a	0	38.8381824	1	14	72.4938093	0	85.6259435	11	485.7333333	504.77	13	1	1	1	485	54.1584744	492.1764706	10	493.98	59.8565593	0	15	513.375	1	1	1	91.1874748	491	1	1	577.5	1	64.3294346	0	0	0	579.5714286	19	1	488.1666667	70.5547284	1	557.1818182	584.8421053	1	0	482.8461538	n/a	1
sub-70069	1	153.4421715	504	434.1111111	13	0	73.2177619	14	80.6520304	n/a	45.62	12	0	0	109.0750279	n/a	0	61.2446753	1	10	80.9572933	0	93.2949921	2	442.5833333	458.38	11	1	1	1	448.5	93.9010117	445.0769231	9	462.9	69.0496528	0	12	440.9285714	1	1	1	74.004129	452	1	0.75	502.5	1	88.6043656	0	0	0	577.2	16	1	463.5833333	107.2689554	0.9791667	548.5	512.75	1	0	471.3636364	n/a	0.9583333
sub-70070	1	299.6591715	973.13	982.6	24	0	236.90829	12	260.0961148	n/a	108.85	7	0	0	216.1274865	n/a	0	134.7224737	1	16	145.0923187	0	232.4649705	7	704.7333333	864.28	18	1	1	1	737.5	193.862224	761.1666667	10	749.19	164.943177	0	15	794.0833333	1	1	1	280.3038827	788.5	1	1	874	1	140.1006714	0	0	0	1005.3125	21	1	829.7142857	138.3615003	1	1017.4285714	954.5238095	1	0	808.6111111	n/a	1
sub-70072	1	124.2531259	594.57	513.8888889	15	0	118.8168058	10	221.1862832	n/a	90.68	10	0	0	212.7698443	n/a	0	171.0076022	1	11	186.9267236	0	193.2544249	8	533.5	503.89	16	1	1	1	488	157.7698142	551.2	9	541.87	169.9652783	0	16	433.1	1	1	1	288.3411367	428.5	1	0.8723404	572.5	1	244.7340574	0	0	0	624.4545455	15	1	532.7	376.2186273	1	620.625	600.2	1	0	519.0625	n/a	0.9782609
sub-70073	1	50.2451135	580.92	512.5	12	0	62.3178558	12	69.7532124	n/a	55.17	6	0	0	64.4531277	n/a	0	45.8957977	1	12	71.0971075	0	35.1674565	14	506.3181818	525.75	22	1	1	1	510.5	92.7654887	517.3333333	8	522.81	75.3220072	0	22	533.6666667	1	1	1	74.4542045	514	1	0.9583333	578	1	70.0348413	0	0	0	570.75	13	1	578.3333333	104.4828535	1	592.5714286	591.5384615	1	0	533.5	n/a	0.9791667
sub-70074	1	79.7179552	551.33	495.3333333	20	0	76.2764112	12	80.3928271	n/a	49.52	8	0	0	86.9148111	n/a	0	70.9528383	1	18	80.1469484	0	76.7331553	7	475.75	501.81	20	1	1	1	454.5	89.4688846	469.9	9	462.46	79.5023171	0	16	489.5	1	1	1	60.4607311	503	1	0.9375	542	1	72.2041899	0	0	0	557.7222222	14	1	457	47.3799234	0.9791667	569.4285714	564.2857143	1	0	495.75	n/a	1
sub-70075	1	36.2386271	650.9	559.5714286	16	0	60.7523635	18	90.0498581	n/a	107.19	12	0	0	93.4436318	n/a	0	63.5226666	1	19	59.6238207	0	102.0175424	7	534.25	543.71	15	1	1	1	532.5	109.483313	532.0625	7	530.27	116.4774656	0	16	535.4444444	1	1	1	101.46733	524	1	0.9791667	657.5	1	62.0002538	0	0	0	650.3684211	16	1	522	73.5947132	1	644.2857143	641.9375	1	0	546	n/a	0.9583333
sub-70076	1	135.3093426	856.98	663	14	0	192.1913729	15	151.7331025	n/a	226.02	7	0	0	273.8990049	n/a	0	162.5801577	1	15	98.9988777	0	265.3975455	11	586	630.96	18	1	1	1	575	277.432623	630	7	606.98	118.0969055	0	19	642.3333333	1	1	1	100.312844	601	1	1	818	1	118.2659264	0	0	0	857	17	1	633.2857143	63.8375916	0.9583333	814.2727273	828.1176471	1	0	632.0555556	n/a	0.9583333
sub-70077	1	50.3484525	621.21	526.5714286	19	0	93.2822542	19	145.5220838	n/a	45.77	6	0	0	96.1167195	n/a	0	71.4946119	1	17	95.4563983	0	75.2107334	6	547.4210526	575.44	17	1	1	1	533	115.2317127	543.5789474	7	546.19	74.7036301	0	19	586.6315789	1	1	1	55.1750461	555	1	0.9791667	604	1	79.4247017	0	0	0	600.8235294	21	1	524.8333333	69.6057948	1	594.8333333	627.3809524	1	0	555.4117647	n/a	1
sub-70079	1	54.2950786	569.77	479.3636364	17	0	88.8656021	15	77.4544478	n/a	89.77	7	0	0	109.4728645	n/a	0	81.8047352	1	15	83.2336597	0	102.4016369	10	474.2105263	480	18	1	1	1	468.5	75.4192205	474.4705882	11	481.85	66.0855061	0	19	501.3333333	1	1	1	81.5662586	468	1	0.9583333	544.5	1	84.7597329	0	0	0	583.3333333	17	1	500.5714286	71.4722723	1	520.2	587.0588235	1	0	463.6666667	n/a	1
