onset	duration	trial_number	trial_type	trial_type_coded	reaction_time	expected_response_coded	response	response_coded	accuracy	accuracy_scrambled	accuracy_task	rec_codes_during_enc	onset_probe	onset_noTriggerAdjust	onset_probe_noTriggerAdjust
2.01518824599998	2	1	CONTROL	1	1.38553209100019	1	LEFT	5	1	1	0	0	2.03172978399994	0.0151882459999797	0.0317297839999355
6.51598517799994	2	2	CONTROL	1	1.30899537800019	2	RIGHT	28	1	1	0	0	6.53249441799994	4.51598517799994	4.53249441799994
13.515299099	4	3	TASK	2	2.49354549700001	1	LEFT	5	1	0	1	16	14.508152678	11.515299099	12.508152678
21.5074754090001	2	4	CONTROL	1	1.42146179799988	1	LEFT	5	1	1	0	0	21.5240039980001	19.5074754090001	19.5240039980001
24.039167617	4	5	TASK	2	1.53828631700003	2	LEFT	5	0	0	0	28	25.0153691830001	22.039167617	23.0153691830001
40.519840355	4	6	TASK	2	1.23285222200002	1	LEFT	5	1	0	1	1	41.512677251	38.519840355	39.512677251
51.507014435	2	7	CONTROL	1	0.973772678999921	2	RIGHT	28	1	1	0	0	51.523478798	49.507014435	49.523478798
58.5228392910001	2	8	CONTROL	1	1.14946992600017	2	RIGHT	28	1	1	0	0	58.539382835	56.5228392910001	56.539382835
68.0207556519999	4	9	TASK	2	1.15629976399987	2	RIGHT	28	1	0	1	33	69.0135601750001	66.0207556519999	67.0135601750001
72.521513896	2	10	CONTROL	1	0.911751333999973	2	RIGHT	28	1	1	0	0	72.5380592070001	70.521513896	70.5380592070001
78.015093576	4	11	TASK	2	0.841410570999869	2	RIGHT	28	1	0	1	17	79.0078916100001	76.015093576	77.0078916100001
83.508620733	4	12	TASK	2	0.834758724000039	2	RIGHT	28	1	0	1	11	84.5179650499999	81.508620733	82.5179650499999
94.5123527810001	4	13	TASK	2	0.784622945999899	1	LEFT	5	1	0	1	8	95.5050904520001	92.5123527810001	93.5050904520001
100.022488223	2	14	CONTROL	1	1.08193090700001	1	LEFT	5	1	1	0	0	100.038984543	98.022488223	98.038984543
106.508848598	4	15	TASK	2	0.699686199000098	1	LEFT	5	1	0	1	5	107.518173987	104.508848598	105.518173987
111.026131821	2	16	CONTROL	1	0.782756613999936	1	LEFT	5	1	1	0	0	111.042661223	109.026131821	109.042661223
114.02113026	2	17	CONTROL	1	0.724440856999991	2	RIGHT	28	1	1	0	0	114.037598369	112.02113026	112.037598369
120.507474875	4	18	TASK	2	0.724679185999776	2	RIGHT	28	1	0	1	25	121.516824887	118.507474875	119.516824887
127.026943463	2	19	CONTROL	1	0.653226047999851	1	LEFT	5	1	1	0	0	127.04350063	125.026943463	125.04350063
131.01472127	4	20	TASK	2	0.682552957000098	1	LEFT	5	1	0	1	21	132.007561645	129.01472127	130.007561645
137.004726624	4	21	TASK	2	0.683870867999758	2	RIGHT	28	1	0	1	35	138.014071624	135.004726624	136.014071624
153.005550569	4	22	TASK	2	0.634450935000132	1	LEFT	5	1	0	1	4	154.01489224	151.005550569	152.01489224
157.522927721	4	23	TASK	2	0.766187157000331	2	RIGHT	28	1	0	1	34	158.515681926	155.522927721	156.515681926
163.016505015	2	24	CONTROL	1	1.01635902199996	2	RIGHT	28	1	1	0	0	163.033025717	161.016505015	161.033025717
167.020761517	2	25	CONTROL	1	0.67650796099997	1	LEFT	5	1	1	0	0	167.037350377	165.020761517	165.037350377
176.518661786	2	26	CONTROL	1	0.658275694000167	2	RIGHT	28	1	1	0	0	176.535226187	174.518661786	174.535226187
181.515868148	2	27	CONTROL	1	0.6611832829999	2	RIGHT	28	1	1	0	0	181.532368251	179.515868148	179.532368251
184.04753322	4	28	TASK	2	0.649375637000048	2	RIGHT	28	1	0	1	15	185.007252208	182.04753322	183.007252208
191.013746357	2	29	CONTROL	1	0.554799969000214	2	RIGHT	28	1	1	0	0	191.030264723	189.013746357	189.030264723
195.018105933	4	30	TASK	2	0.574761537000086	2	RIGHT	28	1	0	1	36	196.010974091	193.018105933	194.010974091
204.019598092	4	31	TASK	2	0.772822027000075	2	RIGHT	28	1	0	1	14	205.012371946	202.019598092	203.012371946
211.515371135	4	32	TASK	2	0.861903872000312	1	LEFT	5	1	0	1	77	212.50810434	209.515371135	210.50810434
218.018230749	2	33	CONTROL	1	0.645645736000006	2	RIGHT	28	1	1	0	0	218.034823264	216.018230749	216.034823264
222.519042775	4	34	TASK	2	0.881516531000216	1	LEFT	5	1	0	1	87	223.511866445	220.519042775	221.511866445
228.012590544	4	35	TASK	2	0.644221721000122	1	LEFT	5	1	0	1	73	229.005370565	226.012590544	227.005370565
242.011269783	4	36	TASK	2	0.645505254	1	LEFT	5	1	0	1	94	243.004057307	240.011269783	241.004057307
256.009914296	4	37	TASK	2	0.655060967000281	1	LEFT	5	1	0	1	64	257.002721487	254.009914296	255.002721487
263.522178935	4	38	TASK	2	0.725993976999689	2	RIGHT	28	1	0	1	69	264.515039423	261.522178935	262.515039423
282.005076731	2	39	CONTROL	1	0.811278836999918	1	LEFT	5	1	1	0	0	282.021666308	280.005076731	280.021666308
285.016614476	4	40	TASK	2	0.831577990999904	2	RIGHT	28	1	0	1	97	286.009409295	283.016614476	284.009409295
294.018074419	4	41	TASK	2	0.822043927999857	1	LEFT	5	1	0	1	63	295.010901887	292.018074419	293.010901887
299.511615436	2	42	CONTROL	1	0.577366718999656	1	LEFT	5	1	1	0	0	299.528220493	297.511615436	297.528220493
307.5203503	2	43	CONTROL	1	0.599718644999939	1	LEFT	5	1	1	0	0	307.53690235	305.5203503	305.53690235
318.52405387	4	44	TASK	2	0.54091833099983	1	LEFT	5	1	0	1	70	319.516857357	316.52405387	317.516857357
326.019831592	4	45	TASK	2	0.540265786999953	1	LEFT	5	1	0	1	104	327.01259332	324.019831592	325.01259332
333.019108582	2	46	CONTROL	1	0.917739098999846	1	LEFT	5	1	1	0	0	333.035650473	331.019108582	331.035650473
338.512678889	4	47	TASK	2	0.712150289999954	2	RIGHT	28	1	0	1	45	339.505477881	336.512678889	337.505477881
349.019927025	4	48	TASK	2	0.740032661999976	2	RIGHT	28	1	0	1	83	350.012714856	347.019927025	348.012714856
360.007111104	2	49	CONTROL	1	0.642429463000099	1	LEFT	5	1	1	0	0	360.023659753	358.007111104	358.023659753
365.020801176	2	50	CONTROL	1	0.940379226000005	2	RIGHT	28	1	1	0	0	365.037352056	363.020801176	363.037352056
372.516493947	2	51	CONTROL	1	0.548815736000051	2	RIGHT	28	1	1	0	0	372.533068588	370.516493947	370.533068588
378.506511796	4	52	TASK	2	0.661005048000334	2	RIGHT	28	1	0	1	93	379.515814405	376.506511796	377.515814405
385.505821895	4	53	TASK	2	0.638426569999865	1	LEFT	5	1	0	1	46	386.515190654	383.505821895	384.515190654
392.505137586	4	54	TASK	2	0.766723526000078	2	RIGHT	28	1	0	1	96	393.514512481	390.505137586	391.514512481
407.01676057	4	55	TASK	2	1.28783915699978	2	RIGHT	28	1	0	1	49	408.009620761	405.01676057	406.009620761
414.016151346	4	56	TASK	2	0.568121853999855	2	RIGHT	28	1	0	1	103	415.008950509	412.016151346	413.008950509
420.519023834	4	57	TASK	2	0.593529084000238	2	RIGHT	28	1	0	1	66	421.51183515	418.519023834	419.51183515
431.522697443	4	58	TASK	2	0.637689333000253	2	RIGHT	28	1	0	1	48	432.515562721	429.522697443	430.515562721
445.504795699	4	59	TASK	2	0.582579488999727	2	RIGHT	28	1	0	1	99	446.51418256	443.504795699	444.51418256
450.022118619	4	60	TASK	2	0.738236885999868	1	LEFT	5	1	0	1	98	451.014917523	448.022118619	449.014917523
455.019371763	4	61	TASK	2	0.573067024000011	2	RIGHT	28	1	0	1	62	456.012089622	453.019371763	454.012089622
461.505622279	2	62	CONTROL	1	0.64734238400024	1	LEFT	5	1	1	0	0	461.52216769	459.505622279	459.52216769
467.015745431	4	63	TASK	2	0.697165908999978	1	LEFT	5	1	0	1	102	468.00859501	465.015745431	466.00859501
475.520834338	4	64	TASK	2	0.559112454999649	2	RIGHT	28	1	0	1	82	476.513723866	473.520834338	474.513723866
