onset	duration	trial_number	trial_type	trial_type_coded	reaction_time	expected_response_coded	response	response_coded	accuracy	accuracy_scrambled	accuracy_task	rec_codes_during_enc	onset_probe	onset_noTriggerAdjust	onset_probe_noTriggerAdjust
0.0157763189999969	2	1	CONTROL	1	n/a	1	n/a	n/a	0	0	0	0	0.0488799480008311	0.0157763189999969	0.0488799480008311
4.51659813500009	2	2	CONTROL	1	1.44150342499779	2	RIGHT	28	1	1	0	0	4.5331077050032	4.51659813500009	4.5331077050032
11.5158758170001	4	3	TASK	2	2.37431355499939	1	LEFT	5	1	0	1	16	12.5087470400031	11.5158758170001	12.5087470400031
19.5080783250014	2	4	CONTROL	1	1.96726256799957	1	LEFT	5	1	1	0	0	19.5246565920024	19.5080783250014	19.5246565920024
22.039741716002	4	5	TASK	2	n/a	2	n/a	n/a	0	0	0	28	23.0159954720002	22.039741716002	23.0159954720002
38.5203978240024	4	6	TASK	2	3.37499968100019	1	LEFT	5	1	0	1	1	39.5132541870007	38.5203978240024	39.5132541870007
49.5075620400021	2	7	CONTROL	1	1.23481782399904	2	RIGHT	28	1	1	0	0	49.5240732720013	49.5075620400021	49.5240732720013
56.5234132920014	2	8	CONTROL	1	0.637815469999623	2	RIGHT	28	1	1	0	0	56.5400002730021	56.5234132920014	56.5400002730021
66.0047728130012	4	9	TASK	2	2.51703632900171	2	RIGHT	28	1	0	1	33	67.014110469001	66.0047728130012	67.014110469001
70.5221065910009	2	10	CONTROL	1	1.04449212299733	2	RIGHT	28	1	1	0	0	70.5386790200027	70.5221065910009	70.5386790200027
76.0156969920026	4	11	TASK	2	1.14638237100007	2	RIGHT	28	1	0	1	17	77.0084965430033	76.0156969920026	77.0084965430033
81.5092371970022	4	12	TASK	2	1.05709154299984	2	RIGHT	28	1	0	1	11	82.5020306630031	81.5092371970022	82.5020306630031
92.5129299010005	4	13	TASK	2	1.06189485399955	1	LEFT	5	1	0	1	8	93.505717277003	92.5129299010005	93.505717277003
98.0230259370001	2	14	CONTROL	1	1.64252565000061	1	LEFT	5	1	1	0	0	98.0395965700009	98.0230259370001	98.0395965700009
104.509401567	4	15	TASK	2	0.878061064999201	1	LEFT	5	1	0	1	5	105.502218647001	104.509401567	105.502218647001
109.010171406	2	16	CONTROL	1	0.882333663997997	1	LEFT	5	1	1	0	0	109.026688708003	109.010171406	109.026688708003
112.021670969003	2	17	CONTROL	1	1.08796973800054	2	RIGHT	28	1	1	0	0	112.038233104002	112.021670969003	112.038233104002
118.508067408002	4	18	TASK	2	0.716178716000286	2	RIGHT	28	1	0	1	25	119.517377691001	118.508067408002	119.517377691001
125.011011256003	2	19	CONTROL	1	1.22651140200105	1	LEFT	5	1	1	0	0	125.027522491	125.011011256003	125.027522491
129.015316628003	4	20	TASK	2	3.29794570000013	1	LEFT	5	1	0	1	21	130.008125789001	129.015316628003	130.008125789001
135.005295199	4	21	TASK	2	1.19241539399809	2	RIGHT	28	1	0	1	35	136.014687720002	135.005295199	136.014687720002
151.022695579002	4	22	TASK	2	0.841415742997924	1	LEFT	5	1	0	1	4	152.015520102002	151.022695579002	152.015520102002
155.523395698001	4	23	TASK	2	0.94703685100103	2	RIGHT	28	1	0	1	34	156.516299530002	155.523395698001	156.516299530002
161.017022772001	2	24	CONTROL	1	1.04633331600053	2	RIGHT	28	1	1	0	0	161.033561141001	161.017022772001	161.033561141001
165.021374373002	2	25	CONTROL	1	0.976977827001974	1	LEFT	5	1	1	0	0	165.037957353001	165.021374373002	165.037957353001
174.519239854002	2	26	CONTROL	1	0.755355460998544	2	RIGHT	28	1	1	0	0	174.535800961003	174.519239854002	174.535800961003
179.516482985	2	27	CONTROL	1	0.705572939001286	2	RIGHT	28	1	1	0	0	179.532999661002	179.516482985	179.532999661002
182.048142041003	4	28	TASK	2	1.95221752799989	2	RIGHT	28	1	0	1	15	183.007840614002	182.048142041003	183.007840614002
189.014354606003	2	29	CONTROL	1	1.26814380300129	2	RIGHT	28	1	1	0	0	189.030849143001	189.014354606003	189.030849143001
193.018727685001	4	30	TASK	2	1.35657983700003	2	RIGHT	28	1	0	1	36	194.011512316003	193.018727685001	194.011512316003
202.020207924001	4	31	TASK	2	1.98738957500245	2	RIGHT	28	1	0	1	14	203.012951328001	202.020207924001	203.012951328001
209.515962283003	4	32	TASK	2	1.10838998399777	1	LEFT	5	1	0	1	77	210.508737677003	209.515962283003	210.508737677003
216.018810619003	2	33	CONTROL	1	1.06778335900162	2	RIGHT	28	1	1	0	0	216.035374430001	216.018810619003	216.035374430001
220.519573911002	4	34	TASK	2	0.880754580000939	1	LEFT	5	1	0	1	87	221.512419053	220.519573911002	221.512419053
226.013192643	4	35	TASK	2	1.1958827410017	1	LEFT	5	1	0	1	73	227.005972816001	226.013192643	227.005972816001
240.011846223002	4	36	TASK	2	1.55446375099928	1	LEFT	5	1	0	1	94	241.004664932003	240.011846223002	241.004664932003
254.010470960002	4	37	TASK	2	1.38480795999931	1	LEFT	5	1	0	1	64	255.003316164002	254.010470960002	255.003316164002
261.522797819001	4	38	TASK	2	0.875376690000849	2	RIGHT	28	1	0	1	69	262.515603888001	261.522797819001	262.515603888001
280.005631597003	2	39	CONTROL	1	1.12693844000023	1	LEFT	5	1	1	0	0	280.022271276001	280.005631597003	280.022271276001
283.017148999003	4	40	TASK	2	0.812261606999527	2	RIGHT	28	1	0	1	97	284.009955491001	283.017148999003	284.009955491001
292.018720449003	4	41	TASK	2	1.45564916700096	1	LEFT	5	1	0	1	63	293.011496151001	292.018720449003	293.011496151001
297.512235238002	2	42	CONTROL	1	1.70667738999691	1	LEFT	5	1	1	0	0	297.528772086003	297.512235238002	297.528772086003
305.520973144001	2	43	CONTROL	1	0.981449235998298	1	LEFT	5	1	1	0	0	305.537450963002	305.520973144001	305.537450963002
316.508168386001	4	44	TASK	2	0.802648903998488	1	LEFT	5	1	0	1	70	317.517420538003	316.508168386001	317.517420538003
324.003788499002	4	45	TASK	2	1.45811935099846	1	LEFT	5	1	0	1	104	325.013147895002	324.003788499002	325.013147895002
331.003188181003	2	46	CONTROL	1	1.06080688899965	1	LEFT	5	1	1	0	0	331.019711565001	331.003188181003	331.019711565001
336.513255446003	4	47	TASK	2	0.727818120998563	2	RIGHT	28	1	0	1	45	337.506057263003	336.513255446003	337.506057263003
347.003964052001	4	48	TASK	2	0.930843222999101	2	RIGHT	28	1	0	1	83	348.013352507001	347.003964052001	348.013352507001
358.007648670002	2	49	CONTROL	1	1.49208505299976	1	LEFT	5	1	1	0	0	358.024181504003	358.007648670002	358.024181504003
363.004838651003	2	50	CONTROL	1	1.1337565649992	2	RIGHT	28	1	1	0	0	363.021371267001	363.004838651003	363.021371267001
370.517081023001	2	51	CONTROL	1	0.658818963001977	2	RIGHT	28	1	1	0	0	370.533692361001	370.517081023001	370.533692361001
376.507108538	4	52	TASK	2	0.847568617999059	2	RIGHT	28	1	0	1	93	377.516379874003	376.507108538	377.516379874003
383.506411305003	4	53	TASK	2	0.963279498002521	1	LEFT	5	1	0	1	46	384.515777786	383.506411305003	384.515777786
390.522351342002	4	54	TASK	2	1.03724792499997	2	RIGHT	28	1	0	1	96	391.515091901001	390.522351342002	391.515091901001
405.017323673001	4	55	TASK	2	1.24605484499989	2	RIGHT	28	1	0	1	49	406.010161401002	405.017323673001	406.010161401002
412.016722587003	4	56	TASK	2	1.1285806679989	2	RIGHT	28	1	0	1	103	413.009521833003	412.016722587003	413.009521833003
418.503068522001	4	57	TASK	2	0.78049896399898	2	RIGHT	28	1	0	1	66	419.512421610001	418.503068522001	419.512421610001
429.506796846003	4	58	TASK	2	0.65522107900324	2	RIGHT	28	1	0	1	48	430.516139731	429.506796846003	430.516139731
443.522001117002	4	59	TASK	2	0.73536699000033	2	RIGHT	28	1	0	1	99	444.514798209002	443.522001117002	444.514798209002
448.022731684003	4	60	TASK	2	0.91308652799853	1	LEFT	5	1	0	1	98	449.015514098002	448.022731684003	449.015514098002
453.019887725	4	61	TASK	2	0.853470442998514	2	RIGHT	28	1	0	1	62	454.012688313003	453.019887725	454.012688313003
459.522753242003	2	62	CONTROL	1	1.43265162399985	1	LEFT	5	1	1	0	0	459.539330455002	459.522753242003	459.539330455002
465.016328216003	4	63	TASK	2	0.912307718001102	1	LEFT	5	1	0	1	102	466.009155979002	465.016328216003	466.009155979002
473.521457646002	4	64	TASK	2	1.37002183299774	2	RIGHT	28	1	0	1	82	474.514244911003	473.521457646002	474.514244911003
