onset	duration	trial_number	trial_type	reaction_time	response_coded	response_str	pairno_rec	enc_codes_during_rec	onset_noTriggerAdjust
0.113905624002655	3	1	CORRECTLY	2.4941780879999	10	MAYBE_INCORRECT	3	6	0.113905624002655
4.51540390100126	3	2	INCORRECTLY	1.90238786700138	21	SURE_INCORRECT	55	0	4.51540390100126
13.0205467840024	2	3	CONTROL	1.21806475499761	5	n/a	1000	0	13.0205467840024
16.0817848890001	3	4	CORRECTLY	2.3880425310017	28	MAYBE_CORRECT	12	0	16.0817848890001
21.012640357003	3	5	CORRECTLY	2.04415391799921	10	MAYBE_INCORRECT	8	15	21.012640357003
25.0832010450031	2	6	CONTROL	1.19119551199765	28	n/a	1000	0	25.0832010450031
29.0213751090014	3	7	INCORRECTLY	2.23341200499999	10	MAYBE_INCORRECT	59	0	29.0213751090014
36.020724754002	3	8	CORRECTLY	1.50274170699777	5	SURE_CORRECT	7	13	36.020724754002
40.521473079003	3	9	INCORRECTLY	1.85632666699894	28	MAYBE_CORRECT	68	0	40.521473079003
47.0243203919999	3	10	INCORRECTLY	1.44906562300093	5	SURE_CORRECT	64	0	47.0243203919999
51.0617627570027	3	11	CORRECTLY	2.60813110399977	21	SURE_INCORRECT	6	12	51.0617627570027
56.0093532550018	2	12	CONTROL	1.07176570699812	5	n/a	1000	0	56.0093532550018
61.5028986670004	3	13	INCORRECTLY	1.67514770900016	5	SURE_CORRECT	78	0	61.5028986670004
65.5734248450026	3	14	CORRECTLY	2.24202058099763	28	MAYBE_CORRECT	16	31	65.5734248450026
69.5778086980026	3	15	CORRECTLY	2.30333688999963	10	MAYBE_INCORRECT	14	0	69.5778086980026
75.0051477030029	3	16	CORRECTLY	1.35603422599888	5	SURE_CORRECT	1	3	75.0051477030029
79.0591550890022	3	17	CORRECTLY	1.79209615699801	10	MAYBE_INCORRECT	5	11	79.0591550890022
83.5102358980002	3	18	INCORRECTLY	1.67174071200134	28	MAYBE_CORRECT	51	0	83.5102358980002
90.0132089079998	3	19	INCORRECTLY	1.78996128800281	5	SURE_CORRECT	47	0	90.0132089079998
94.0836555940004	3	20	INCORRECTLY	2.03000845100178	5	SURE_CORRECT	66	0	94.0836555940004
99.0147067020007	3	21	CORRECTLY	2.51734017900162	21	SURE_INCORRECT	10	20	99.0147067020007
103.085236857001	3	22	INCORRECTLY	1.82776418499998	10	MAYBE_INCORRECT	48	0	103.085236857001
107.072997116	3	23	INCORRECTLY	1.40491874800136	5	SURE_CORRECT	52	0	107.072997116
115.015497375	3	24	INCORRECTLY	1.64908856300099	28	MAYBE_CORRECT	45	0	115.015497375
119.516247156	3	25	CORRECTLY	2.03484505100278	10	MAYBE_INCORRECT	9	18	119.516247156
125.506266986002	3	26	INCORRECTLY	1.63071931499871	5	SURE_CORRECT	42	0	125.506266986002
131.016361475002	3	27	INCORRECTLY	2.10519658200064	28	MAYBE_CORRECT	80	0	131.016361475002
137.022905764003	3	28	CORRECTLY	2.12206415199762	5	SURE_CORRECT	2	5	137.022905764003
142.020044572	2	29	CONTROL	1.83944279700154	10	n/a	1000	0	142.020044572
145.081224648002	3	30	INCORRECTLY	1.76454417999776	5	SURE_CORRECT	56	0	145.081224648002
150.508625933002	3	31	INCORRECTLY	1.43898417200035	5	SURE_CORRECT	43	0	150.508625933002
155.009366298	3	32	INCORRECTLY	2.10881349100237	5	SURE_CORRECT	58	0	155.009366298
159.510118054	3	33	CORRECTLY	2.13579167300122	10	MAYBE_INCORRECT	4	9	159.510118054
167.022416161002	3	34	CORRECTLY	1.40405284299777	5	SURE_CORRECT	13	0	167.022416161002
173.508748619002	3	35	CORRECTLY	1.395701043999	5	SURE_CORRECT	11	21	173.508748619002
178.505885932002	3	36	CORRECTLY	1.04378548399836	5	SURE_CORRECT	15	30	178.505885932002
182.576491086002	3	37	INCORRECTLY	2.10893286599821	21	SURE_INCORRECT	46	0	182.576491086002
188.516760042003	2	38	CONTROL	1.20410267499756	28	n/a	1000	0	188.516760042003
193.513996943002	2	39	CONTROL	0.891998225997668	28	n/a	1000	0	193.513996943002
198.014656749001	3	40	INCORRECTLY	2.55511845300134	10	MAYBE_INCORRECT	62	0	198.014656749001
203.011858853002	2	41	CONTROL	1.11892631500086	5	n/a	1000	0	203.011858853002
207.512612333001	2	42	CONTROL	1.62082444000043	21	n/a	1000	0	207.512612333001
211.020532586001	2	43	CONTROL	1.40558856400094	28	n/a	1000	0	211.020532586001
218.516306601003	3	44	INCORRECTLY	1.17351783999766	5	SURE_CORRECT	49	0	218.516306601003
224.00992371	3	45	CORRECTLY	0.709091340002487	28	MAYBE_CORRECT	27	47	224.00992371
229.519942959003	3	46	CORRECTLY	1.12168695399669	5	SURE_CORRECT	30	53	229.519942959003
235.013560736003	3	47	INCORRECTLY	1.42926300299951	28	MAYBE_CORRECT	75	0	235.013560736003
244.511392204	3	48	CORRECTLY	2.05760735700096	10	MAYBE_INCORRECT	35	58	244.511392204
252.007180981	3	49	CORRECTLY	2.63819930400132	10	MAYBE_INCORRECT	32	55	252.007180981
256.061134384003	2	50	CONTROL	1.62668531699819	21	n/a	1000	0	256.061134384003
259.072653231	3	51	INCORRECTLY	1.95762842600016	5	SURE_CORRECT	70	0	259.072653231
267.015226463001	2	52	CONTROL	1.33879860999878	21	n/a	1000	0	267.015226463001
272.525295783002	3	53	INCORRECTLY	3.41190072600148	5	SURE_CORRECT	79	0	272.525295783002
277.522474196001	3	54	INCORRECTLY	2.02921559999959	28	MAYBE_CORRECT	65	0	277.522474196001
282.006694704	2	55	CONTROL	1.0410292680026	21	n/a	1000	0	282.006694704
285.084424183002	3	56	INCORRECTLY	1.61069571999906	10	MAYBE_INCORRECT	53	0	285.084424183002
292.017554254002	3	57	INCORRECTLY	1.89101493799899	5	SURE_CORRECT	76	0	292.017554254002
296.071537707001	2	58	CONTROL	n/a	n/a	n/a	1000	0	296.071537707001
300.026216208	3	59	INCORRECTLY	2.30620393200297	10	MAYBE_INCORRECT	41	0	300.026216208
305.519802320003	2	60	CONTROL	2.67493456800003	21	n/a	1000	0	305.519802320003
310.020581414003	3	61	INCORRECTLY	1.77753938099704	5	SURE_CORRECT	63	0	310.020581414003
318.012672827001	3	62	CORRECTLY	1.43567959199936	5	SURE_CORRECT	38	61	318.012672827001
325.012065819003	3	63	CORRECTLY	1.14875742799995	5	SURE_CORRECT	24	41	325.012065819003
330.009165875003	3	64	CORRECTLY	2.41200833800031	28	MAYBE_CORRECT	21	37	330.009165875003
335.519317404	3	65	INCORRECTLY	2.87505446600335	10	MAYBE_INCORRECT	67	0	335.519317404
341.525872057002	3	66	CORRECTLY	n/a	n/a	n/a	34	57	341.525872057002
346.522976999	3	67	INCORRECTLY	1.38324910099982	5	SURE_CORRECT	60	0	346.522976999
351.023723026003	2	68	CONTROL	1.19008595999912	21	n/a	1000	0	351.023723026003
355.011545113	3	69	CORRECTLY	2.00498496	10	MAYBE_INCORRECT	22	38	355.011545113
362.507270123002	3	70	CORRECTLY	1.72154207199856	28	MAYBE_CORRECT	25	44	362.507270123002
367.008048309002	3	71	INCORRECTLY	1.61514668999735	5	SURE_CORRECT	71	0	367.008048309002
371.061946641003	3	72	INCORRECTLY	2.29826420699828	10	MAYBE_INCORRECT	57	0	371.061946641003
375.513096484003	3	73	CORRECTLY	1.3285073679981	5	SURE_CORRECT	19	35	375.513096484003
381.006682982003	2	74	CONTROL	1.85154341499947	28	n/a	1000	0	381.006682982003
386.020390603	3	75	INCORRECTLY	1.71901415700268	5	SURE_CORRECT	74	0	386.020390603
391.513936961001	2	76	CONTROL	1.41662289600208	21	n/a	1000	0	391.513936961001
395.518270370001	3	77	CORRECTLY	2.90224383900204	28	MAYBE_CORRECT	17	32	395.518270370001
401.011880011003	2	78	CONTROL	1.46876163799971	5	n/a	1000	0	401.011880011003
405.016218246001	3	79	INCORRECTLY	3.4068961060002	10	MAYBE_INCORRECT	77	0	405.016218246001
409.517011735003	2	80	CONTROL	1.36034465699777	10	n/a	1000	0	409.517011735003
415.506973240001	3	81	INCORRECTLY	1.57223541799976	28	MAYBE_CORRECT	44	0	415.506973240001
421.513538515002	3	82	CORRECTLY	1.92273647199909	5	SURE_CORRECT	40	64	421.513538515002
426.014204264	3	83	CORRECTLY	2.99118480499965	21	SURE_INCORRECT	28	48	426.014204264
430.084706951002	3	84	INCORRECTLY	1.55436819799797	5	SURE_CORRECT	50	0	430.084706951002
437.017937828001	3	85	INCORRECTLY	1.74845598699903	5	SURE_CORRECT	72	0	437.017937828001
443.520801219001	3	86	INCORRECTLY	1.69128904800164	5	SURE_CORRECT	69	0	443.520801219001
447.574778788003	3	87	CORRECTLY	1.30395720599699	5	SURE_CORRECT	18	34	447.574778788003
452.522362130003	2	88	CONTROL	1.3666173629972	10	n/a	1000	0	452.522362130003
455.583516358001	2	89	CONTROL	2.4277071409997	28	n/a	1000	0	455.583516358001
462.003714418002	3	90	INCORRECTLY	n/a	n/a	n/a	61	0	462.003714418002
466.074226964	2	91	CONTROL	1.26230804600345	21	n/a	1000	0	466.074226964
470.508761823003	3	92	INCORRECTLY	1.49922265699934	5	SURE_CORRECT	73	0	470.508761823003
474.579354316	3	93	CORRECTLY	0.831969023001875	28	MAYBE_CORRECT	29	52	474.579354316
479.510317091001	3	94	CORRECTLY	1.03403195200008	21	SURE_INCORRECT	20	36	479.510317091001
484.523983602001	2	95	CONTROL	1.12003415300205	10	n/a	1000	0	484.523983602001
489.008197521001	3	96	CORRECTLY	2.20918114999949	5	SURE_CORRECT	31	54	489.008197521001
493.078768834002	3	97	CORRECTLY	1.68952954699853	28	MAYBE_CORRECT	23	40	493.078768834002
498.009693111002	3	98	CORRECTLY	1.13667018399792	5	SURE_CORRECT	37	60	498.009693111002
502.510484948001	3	99	CORRECTLY	3.1695395200004	28	MAYBE_CORRECT	36	59	502.510484948001
506.564435032	2	100	CONTROL	1.32658354600062	21	n/a	1000	0	506.564435032
510.022749851003	3	101	INCORRECTLY	1.13054948199715	10	MAYBE_INCORRECT	54	0	510.022749851003
514.076728352	3	102	CORRECTLY	1.12777421000283	28	MAYBE_CORRECT	39	63	514.076728352
518.081141940002	3	103	CORRECTLY	1.21676530799959	5	SURE_CORRECT	33	56	518.081141940002
522.068902844003	3	104	CORRECTLY	1.32020365700009	5	SURE_CORRECT	26	45	522.068902844003
