onset	duration	trial_number	trial_type	trial_type_coded	reaction_time	expected_response_coded	response	response_coded	accuracy	accuracy_scrambled	accuracy_task	rec_codes_during_enc	onset_probe	onset_noTriggerAdjust	onset_probe_noTriggerAdjust
0.0157972570000311	2	1	CONTROL	1	n/a	1	n/a	n/a	0	0	0	0	0.0488922689999072	0.0157972570000311	0.0488922689999072
4.51665310899989	2	2	CONTROL	1	n/a	2	n/a	n/a	0	0	0	0	4.53318248599999	4.51665310899989	4.53318248599999
11.5159356199999	4	3	TASK	2	1.09272020100002	1	LEFT	5	1	0	1	16	12.508736965	11.5159356199999	12.508736965
19.508068437	2	4	CONTROL	1	0.716761837999911	1	LEFT	5	1	1	0	0	19.524618768	19.508068437	19.524618768
22.0396720869999	4	5	TASK	2	0.697502391999933	2	RIGHT	28	1	0	1	28	23.015994051	22.0396720869999	23.015994051
38.52041523	4	6	TASK	2	0.985256615000026	1	LEFT	5	1	0	1	1	39.513209644	38.52041523	39.513209644
49.5075739649999	2	7	CONTROL	1	0.902467372999809	2	RIGHT	28	1	1	0	0	49.5240996360001	49.5075739649999	49.5240996360001
56.506864899	2	8	CONTROL	1	0.670292302000007	2	RIGHT	28	1	1	0	0	56.5234384739999	56.506864899	56.5234384739999
66.00477331	4	9	TASK	2	0.788256850000153	2	RIGHT	28	1	0	1	33	67.0142256629999	66.00477331	67.0142256629999
70.522110506	2	10	CONTROL	1	1.03957190300002	2	RIGHT	28	1	1	0	0	70.5386069260001	70.522110506	70.5386069260001
76.015631452	4	11	TASK	2	0.785712908999812	2	RIGHT	28	1	0	1	17	77.0084674340001	76.015631452	77.0084674340001
81.509274905	4	12	TASK	2	1.5158345079999	2	RIGHT	28	1	0	1	11	82.502045188	81.509274905	82.502045188
92.5130197389999	4	13	TASK	2	0.696780745000069	1	LEFT	5	1	0	1	8	93.5057375839999	92.5130197389999	93.5057375839999
98.0230008010001	2	14	CONTROL	1	1.050584566	1	LEFT	5	1	1	0	0	98.0395506550001	98.0230008010001	98.0395506550001
104.509390561	4	15	TASK	2	1.22761134500001	1	LEFT	5	1	0	1	5	105.502189216	104.509390561	105.502189216
109.010110066	2	16	CONTROL	1	0.759707402999993	1	LEFT	5	1	1	0	0	109.026660132	109.010110066	109.026660132
112.021647203	2	17	CONTROL	1	0.739786993000052	2	RIGHT	28	1	1	0	0	112.03823971	112.021647203	112.03823971
118.508087384	4	18	TASK	2	1.11649087199999	2	RIGHT	28	1	0	1	25	119.517432781	118.508087384	119.517432781
125.010953195	2	19	CONTROL	1	1.11878542900013	1	LEFT	5	1	1	0	0	125.027536614	125.010953195	125.027536614
129.015332611	4	20	TASK	2	0.865602934000208	1	LEFT	5	1	0	1	21	130.008135037	129.015332611	130.008135037
135.021831771	4	21	TASK	2	0.923480731999916	2	RIGHT	28	1	0	1	35	136.014678004	135.021831771	136.014678004
151.022678845	4	22	TASK	2	0.770953254999995	1	LEFT	5	1	0	1	4	152.015506521	151.022678845	152.015506521
155.52339569	4	23	TASK	2	0.91039362499987	2	RIGHT	28	1	0	1	34	156.516225174	155.52339569	156.516225174
161.017018457	2	24	CONTROL	1	0.735783309999988	2	RIGHT	28	1	1	0	0	161.033553224	161.017018457	161.033553224
165.021357289	2	25	CONTROL	1	0.78020264099996	1	LEFT	5	1	1	0	0	165.037959964	165.021357289	165.037959964
174.519294843	2	26	CONTROL	1	0.858681924999928	2	RIGHT	28	1	1	0	0	174.535841769	174.519294843	174.535841769
179.516480809	2	27	CONTROL	1	0.62127372100008	2	RIGHT	28	1	1	0	0	179.532973041	179.516480809	179.532973041
182.048085785	4	28	TASK	2	0.858087338999894	2	RIGHT	28	1	0	1	15	183.007819437	182.048085785	183.007819437
189.014306786	2	29	CONTROL	1	1.33097579000014	2	RIGHT	28	1	1	0	0	189.030894566	189.014306786	189.030894566
193.018656724	4	30	TASK	2	0.998111717000029	2	RIGHT	28	1	0	1	36	194.011573329	193.018656724	194.011573329
202.003636109	4	31	TASK	2	0.684418617999881	2	RIGHT	28	1	0	1	14	203.012996231	202.003636109	203.012996231
209.515932134	4	32	TASK	2	0.678128469000058	1	LEFT	5	1	0	1	77	210.508694123	209.515932134	210.508694123
216.018885565	2	33	CONTROL	1	1.30979510799989	2	RIGHT	28	1	1	0	0	216.035395807	216.018885565	216.035395807
220.519612439	4	34	TASK	2	0.914693018999969	1	LEFT	5	1	0	1	87	221.512421354	220.519612439	221.512421354
226.013185736	4	35	TASK	2	0.579475899000045	1	LEFT	5	1	0	1	73	227.005944396	226.013185736	227.005944396
240.011886789	4	36	TASK	2	0.661508299999923	1	LEFT	5	1	0	1	94	241.004667162	240.011886789	241.004667162
254.010581041	4	37	TASK	2	0.710306355000057	1	LEFT	5	1	0	1	64	255.00333237	254.010581041	255.00333237
261.522791767	4	38	TASK	2	0.806256780000012	2	RIGHT	28	1	0	1	69	262.515605356	261.522791767	262.515605356
280.005649715	2	39	CONTROL	1	1.00375696900005	1	LEFT	5	1	1	0	0	280.022202796	280.005649715	280.022202796
283.017207623	4	40	TASK	2	0.64821096899982	2	RIGHT	28	1	0	1	97	284.009977781	283.017207623	284.009977781
292.018659843	4	41	TASK	2	0.694082354999864	1	LEFT	5	1	0	1	63	293.011477559	292.018659843	293.011477559
297.512226804	2	42	CONTROL	1	n/a	1	n/a	n/a	0	0	0	0	297.528823986	297.512226804	297.528823986
305.504457653	2	43	CONTROL	1	0.545806144999915	1	LEFT	5	1	1	0	0	305.520979801	305.504457653	305.520979801
316.508118601	4	44	TASK	2	0.509265146999951	1	LEFT	5	1	0	1	70	317.500866292	316.508118601	317.500866292
324.020345065	4	45	TASK	2	0.597263285000054	1	LEFT	5	1	0	1	104	325.013135295	324.020345065	325.013135295
331.0196834	2	46	CONTROL	1	0.733340795999993	1	LEFT	5	1	1	0	0	331.03620464	331.0196834	331.03620464
336.513283586	4	47	TASK	2	0.70344240999998	2	RIGHT	28	1	0	1	45	337.506027241	336.513283586	337.506027241
347.020561816	4	48	TASK	2	0.740065168000001	2	RIGHT	28	1	0	1	83	348.013439459	347.020561816	348.013439459
358.024222134	2	49	CONTROL	1	0.682053220999933	1	LEFT	5	1	1	0	0	358.040766266	358.024222134	358.040766266
363.021341458	2	50	CONTROL	1	0.892838279999978	2	RIGHT	28	1	1	0	0	363.037913787	363.021341458	363.037913787
370.517141383	2	51	CONTROL	1	0.78762279700004	2	RIGHT	28	1	1	0	0	370.533635837	370.517141383	370.533635837
376.507096622	4	52	TASK	2	0.653496596999958	2	RIGHT	28	1	0	1	93	377.516447104	376.507096622	377.516447104
383.506444077	4	53	TASK	2	0.710894849999931	1	LEFT	5	1	0	1	46	384.515786813	383.506444077	384.515786813
390.505754049	4	54	TASK	2	0.894227453999974	2	RIGHT	28	1	0	1	96	391.515058186	390.505754049	391.515058186
405.017379791	4	55	TASK	2	0.76842560099999	2	RIGHT	28	1	0	1	49	406.010166778	405.017379791	406.010166778
412.016705706	4	56	TASK	2	0.535844432999966	2	RIGHT	28	1	0	1	103	413.009484098	412.016705706	413.009484098
418.503056127	4	57	TASK	2	0.569366218999903	2	RIGHT	28	1	0	1	66	419.512479076	418.503056127	419.512479076
429.506778567	4	58	TASK	2	0.70934137800009	2	RIGHT	28	1	0	1	48	430.516084494	429.506778567	430.516084494
443.521947662	4	59	TASK	2	0.672058221000043	2	RIGHT	28	1	0	1	99	444.514737416	443.521947662	444.514737416
448.022712111	4	60	TASK	2	0.491474016999973	1	LEFT	5	1	0	1	98	449.015528559	448.022712111	449.015528559
453.019838467	4	61	TASK	2	0.677265744999886	2	RIGHT	28	1	0	1	62	454.012676018	453.019838467	454.012676018
459.522791002	2	62	CONTROL	1	0.662337338999805	1	LEFT	5	1	1	0	0	459.539345951	459.522791002	459.539345951
465.016358051	4	63	TASK	2	0.649257047999981	1	LEFT	5	1	0	1	102	466.009180754	465.016358051	466.009180754
473.52146042	4	64	TASK	2	0.720256827999947	2	RIGHT	28	1	0	1	82	474.514253567	473.52146042	474.514253567
