onset	duration	trial_number	trial_type	trial_type_coded	reaction_time	expected_response_coded	response	response_coded	accuracy	accuracy_scrambled	accuracy_task	rec_codes_during_enc	onset_probe	onset_noTriggerAdjust	onset_probe_noTriggerAdjust
0.0133138387132021	2	1	CONTROL	1	1.1177671370674	1	LEFT	5	1	1	0	0	0.0465583679324482	0.0133138387132021	0.0465583679324482
4.52289769971321	2	2	CONTROL	1	0.621432828286743	2	RIGHT	28	1	1	0	0	4.53946507271303	4.52289769971321	4.53946507271303
11.5193375199324	4	3	TASK	2	0.848303939067137	1	LEFT	5	1	0	1	16	12.5140962199325	11.5193375199324	12.5140962199325
19.5105083371523	2	4	CONTROL	1	0.689454995242158	1	LEFT	5	1	1	0	0	19.5271656887576	19.5105083371523	19.5271656887576
22.0471025907132	4	5	TASK	2	1.04958279428683	2	RIGHT	28	1	0	1	28	23.0087160037128	22.0471025907132	23.0087160037128
38.510267011713	4	6	TASK	2	0.855836343286683	1	LEFT	5	1	0	1	1	39.5216148527129	38.510267011713	39.5216148527129
49.5188952437129	2	7	CONTROL	1	0.733694653506518	2	RIGHT	28	1	1	0	0	49.5354843694931	49.5188952437129	49.5354843694931
56.5153045409324	2	8	CONTROL	1	1.24517038848444	2	RIGHT	28	1	1	0	0	56.5319393155155	56.5153045409324	56.5319393155155
66.0151217977132	4	9	TASK	2	0.908493300461942	2	RIGHT	28	1	0	1	33	67.0099974445379	66.0151217977132	67.0099974445379
70.5246629537132	2	10	CONTROL	1	0.62597450428666	2	RIGHT	28	1	1	0	0	70.541238325713	70.5246629537132	70.541238325713
76.0124269809326	4	11	TASK	2	0.74505834824231	2	RIGHT	28	1	0	1	17	77.0072807977576	76.0124269809326	77.0072807977576
81.5166698079324	4	12	TASK	2	1.72625260328687	2	RIGHT	28	1	0	1	11	82.5114941127131	81.5166698079324	82.5114941127131
92.5086927917132	4	13	TASK	2	0.86302512806742	1	LEFT	5	1	0	1	8	93.5200165079323	92.5086927917132	93.5200165079323
98.013015823713	2	14	CONTROL	1	0.654606921506911	1	LEFT	5	1	1	0	0	98.029615198493	98.013015823713	98.029615198493
104.512084507713	4	15	TASK	2	1.00407999424215	1	LEFT	5	1	0	1	5	105.506853762758	104.512084507713	105.506853762758
109.021617134713	2	16	CONTROL	1	0.776906459067504	1	LEFT	5	1	1	0	0	109.038147914932	109.021617134713	109.038147914932
112.022476274932	2	17	CONTROL	1	0.67725869684773	2	RIGHT	28	1	1	0	0	112.038951234152	112.022476274932	112.038951234152
118.521463109932	4	18	TASK	2	0.984389581286905	2	RIGHT	28	1	0	1	25	119.516222151713	118.521463109932	119.516222151713
125.020485995713	2	19	CONTROL	1	0.697989349242107	1	LEFT	5	1	1	0	0	125.037185223758	125.020485995713	125.037185223758
129.016120312713	4	20	TASK	2	1.27420601528684	1	LEFT	5	1	0	1	21	130.010871199713	129.016120312713	130.010871199713
135.017743071713	4	21	TASK	2	1.39898816206733	2	RIGHT	28	1	0	1	35	136.012511406932	135.017743071713	136.012511406932
151.016683791932	4	22	TASK	2	0.707664266067241	1	LEFT	5	1	0	1	4	152.011470224933	151.016683791932	152.011470224933
155.526198784152	4	23	TASK	2	0.784023397287001	2	RIGHT	28	1	0	1	34	156.521012882713	155.526198784152	156.521012882713
161.014025361493	2	24	CONTROL	1	0.685671968286897	2	RIGHT	28	1	1	0	0	161.030494824713	161.014025361493	161.030494824713
165.026075698152	2	25	CONTROL	1	0.765652026067528	1	LEFT	5	1	1	0	0	165.042722783932	165.026075698152	165.042722783932
174.509421242932	2	26	CONTROL	1	0.654032371484391	2	RIGHT	28	1	1	0	0	174.526030639515	174.509421242932	174.526030639515
179.516344548152	2	27	CONTROL	1	0.840749211286493	2	RIGHT	28	1	1	0	0	179.532892058713	179.516344548152	179.532892058713
182.052959137932	4	28	TASK	2	1.30585667006744	2	RIGHT	28	1	0	1	15	183.014581832932	182.052959137932	183.014581832932
189.016255472932	2	29	CONTROL	1	0.631452623067162	2	RIGHT	28	1	1	0	0	189.032830120932	189.016255472932	189.032830120932
193.011827915713	4	30	TASK	2	1.01451988228655	2	RIGHT	28	1	0	1	36	194.006601563713	193.011827915713	194.006601563713
202.014289256932	4	31	TASK	2	n/a	2	n/a	n/a	0	0	0	14	203.009150048758	202.014289256932	203.009150048758
209.508154469493	4	32	TASK	2	0.633448812287043	1	LEFT	5	1	0	1	77	210.519497857713	209.508154469493	210.519497857713
216.007124636713	2	33	CONTROL	1	0.837202022703877	2	RIGHT	28	1	1	0	0	216.023804922296	216.007124636713	216.023804922296
220.516814804758	4	34	TASK	2	1.29405658584756	1	LEFT	5	1	0	1	87	221.511464584152	220.516814804758	221.511464584152
226.021059922493	4	35	TASK	2	1.29636331806751	1	LEFT	5	1	0	1	73	227.015806939932	226.021059922493	227.015806939932
240.013864591713	4	36	TASK	2	1.01037050224204	1	LEFT	5	1	0	1	94	241.008682583758	240.013864591713	241.008682583758
254.023331371493	4	37	TASK	2	1.01927969606731	1	LEFT	5	1	0	1	64	255.018014963932	254.023331371493	255.018014963932
261.517054832932	4	38	TASK	2	3.1039329922869	2	RIGHT	28	1	0	1	69	262.511795358713	261.517054832932	262.511795358713
280.019513814713	2	39	CONTROL	1	0.624846177242034	1	LEFT	5	1	1	0	0	280.036106490758	280.019513814713	280.036106490758
283.020284369932	4	40	TASK	2	1.28765730906753	2	RIGHT	28	1	0	1	97	284.015063406932	283.020284369932	284.015063406932
292.022814342932	4	41	TASK	2	0.62446472124202	1	LEFT	5	1	0	1	63	293.017604630758	292.022814342932	293.017604630758
297.527112904713	2	42	CONTROL	1	0.8320210780671	1	LEFT	5	1	1	0	0	297.543719808933	297.527112904713	297.543719808933
305.518250179713	2	43	CONTROL	1	0.589018469287112	1	LEFT	5	1	1	0	0	305.534816823713	305.518250179713	305.534816823713
316.510282311955	4	44	TASK	2	0.620490971704385	1	LEFT	5	1	0	1	70	317.521686004296	316.510282311955	317.521686004296
324.020611193932	4	45	TASK	2	1.15911693806765	1	LEFT	5	1	0	1	104	325.015457292932	324.020611193932	325.015457292932
331.017093593713	2	46	CONTROL	1	0.714542374286793	1	LEFT	5	1	1	0	0	331.033655538713	331.017093593713	331.033655538713
336.521360806713	4	47	TASK	2	1.24311483128668	2	RIGHT	28	1	0	1	45	337.516132410713	336.521360806713	337.516132410713
347.016054038932	4	48	TASK	2	0.997795146067801	2	RIGHT	28	1	0	1	83	348.010808649932	347.016054038932	348.010808649932
358.024597077932	2	49	CONTROL	1	0.812277385067318	1	LEFT	5	1	1	0	0	358.041169799933	358.024597077932	358.041169799933
363.014991381493	2	50	CONTROL	1	0.705192538825031	2	RIGHT	28	1	1	0	0	363.031564827175	363.014991381493	363.031564827175
370.508847268758	2	51	CONTROL	1	0.628979284506386	2	RIGHT	28	1	1	0	0	370.525346246493	370.508847268758	370.525346246493
376.526985939152	4	52	TASK	2	0.835991006461882	2	RIGHT	28	1	0	1	93	377.505261706538	376.526985939152	377.505261706538
383.523459852932	4	53	TASK	2	1.2489933564616	1	LEFT	5	1	0	1	46	384.518274627538	383.523459852932	384.518274627538
390.519827079152	4	54	TASK	2	1.42604351306727	2	RIGHT	28	1	0	1	96	391.514599203932	390.519827079152	391.514599203932
405.010075082713	4	55	TASK	2	0.614242660704349	2	RIGHT	28	1	0	1	49	406.004831789296	405.010075082713	406.004831789296
412.006560055538	4	56	TASK	2	0.527478077241994	2	RIGHT	28	1	0	1	103	413.017854863758	412.006560055538	413.017854863758
418.522114861713	4	57	TASK	2	0.347506858264296	2	RIGHT	28	1	0	1	66	419.516940775735	418.522114861713	419.516940775735
429.514084690933	4	58	TASK	2	0.754240974241839	2	RIGHT	28	1	0	1	48	430.508905627758	429.514084690933	430.508905627758
443.506989233713	4	59	TASK	2	1.03785875882522	2	RIGHT	28	1	0	1	99	444.518284051175	443.506989233713	444.518284051175
448.033097641713	4	60	TASK	2	2.84664885806751	1	LEFT	5	1	0	1	98	449.011207637932	448.033097641713	449.011207637932
453.023469680493	4	61	TASK	2	0.642552105628056	2	RIGHT	28	1	0	1	62	454.018108714372	453.023469680493	454.018108714372
459.505832161152	2	62	CONTROL	1	1.04571374506759	1	LEFT	5	1	1	0	0	459.522469009932	459.505832161152	459.522469009932
465.010183249713	4	63	TASK	2	0.438336112461911	1	LEFT	5	1	0	1	102	466.005036334538	465.010183249713	466.005036334538
473.515272829932	4	64	TASK	2	1.18740869306748	2	RIGHT	28	1	0	1	82	474.510007037932	473.515272829932	474.510007037932
