onset	duration	trial_number	trial_type	trial_type_coded	reaction_time	expected_response_coded	response	response_coded	accuracy	accuracy_scrambled	accuracy_task	rec_codes_during_enc	onset_probe	onset_noTriggerAdjust	onset_probe_noTriggerAdjust
0.013243082812096	2	1	CONTROL	1	0.911489321898443	1	LEFT	5	1	1	0	0	0.046368524101581	0.013243082812096	0.046368524101581
4.52283485981206	2	2	CONTROL	1	0.904943791898859	2	RIGHT	28	1	1	0	0	4.53938711910132	4.52283485981206	4.53938711910132
11.5192690298122	4	3	TASK	2	1.14094164497465	1	LEFT	5	1	0	1	16	12.5141217510254	11.5192690298122	12.5141217510254
19.510447072812	2	4	CONTROL	1	0.744785714477075	1	LEFT	5	1	1	0	0	19.5269635175232	19.510447072812	19.5269635175232
22.0470004355229	4	5	TASK	2	1.36738821576682	2	RIGHT	28	1	0	1	28	23.0086617072334	22.0470004355229	23.0086617072334
38.5101996505232	4	6	TASK	2	1.48542996037077	1	LEFT	5	1	0	1	1	39.5050165686293	38.5101996505232	39.5050165686293
49.5187192095232	2	7	CONTROL	1	0.78559782147704	2	RIGHT	28	1	1	0	0	49.535318913523	49.5187192095232	49.535318913523
56.515202689523	2	8	CONTROL	1	0.697422443188316	2	RIGHT	28	1	1	0	0	56.531737038812	56.515202689523	56.531737038812
66.0150972845231	4	9	TASK	2	1.32807817897492	2	RIGHT	28	1	0	1	33	67.0099297220254	66.0150972845231	67.0099297220254
70.5246195068121	2	10	CONTROL	1	0.76718856089883	2	RIGHT	28	1	1	0	0	70.5411607191013	70.5246195068121	70.5411607191013
76.0122784905229	4	11	TASK	2	1.17819748618831	2	RIGHT	28	1	0	1	17	77.0070259148119	76.0122784905229	77.0070259148119
81.516648881523	4	12	TASK	2	1.96824094966041	2	RIGHT	28	1	0	1	11	82.5114576303399	81.516648881523	82.5114576303399
92.5086341388119	4	13	TASK	2	0.758476156476718	1	LEFT	5	1	0	1	8	93.5200019965232	92.5086341388119	93.5200019965232
98.0129241648119	2	14	CONTROL	1	0.74898096718789	1	LEFT	5	1	1	0	0	98.0294615218122	98.0129241648119	98.0294615218122
104.511993731812	4	15	TASK	2	1.4974883046857	1	LEFT	5	1	0	1	5	105.506766606315	104.511993731812	105.506766606315
109.021511248523	2	16	CONTROL	1	n/a	1	n/a	n/a	0	0	0	0	109.038177689315	109.021511248523	109.038177689315
112.022372872812	2	17	CONTROL	1	0.84762835447691	2	RIGHT	28	1	1	0	0	112.038914387523	112.022372872812	112.038914387523
118.521405399523	4	18	TASK	2	0.794166457477331	2	RIGHT	28	1	0	1	25	119.516184058523	118.521405399523	119.516184058523
125.020427093523	2	19	CONTROL	1	0.751681312477103	1	LEFT	5	1	1	0	0	125.037041478523	125.020427093523	125.037041478523
129.016068637762	4	20	TASK	2	1.01490887918817	1	LEFT	5	1	0	1	21	130.010730576812	129.016068637762	130.010730576812
135.017650944523	4	21	TASK	2	0.772431790188421	2	RIGHT	28	1	0	1	35	136.012481740812	135.017650944523	136.012481740812
151.016634567812	4	22	TASK	2	0.826923392477056	1	LEFT	5	1	0	1	4	152.011395586523	151.016634567812	152.011395586523
155.526187910523	4	23	TASK	2	1.91960911147726	2	RIGHT	28	1	0	1	34	156.520946186523	155.526187910523	156.520946186523
161.013911257812	2	24	CONTROL	1	0.7342373471879	2	RIGHT	28	1	1	0	0	161.030432168812	161.013911257812	161.030432168812
165.025999265523	2	25	CONTROL	1	0.713866355188202	1	LEFT	5	1	1	0	0	165.042625295812	165.025999265523	165.042625295812
174.509291956812	2	26	CONTROL	1	0.591296077238439	2	RIGHT	28	1	1	0	0	174.526022269762	174.509291956812	174.526022269762
179.516264823523	2	27	CONTROL	1	0.642090197188281	2	RIGHT	28	1	1	0	0	179.532880604812	179.516264823523	179.532880604812
182.052873345523	4	28	TASK	2	1.64192312447722	2	RIGHT	28	1	0	1	15	183.014528092523	182.052873345523	183.014528092523
189.016105008812	2	29	CONTROL	1	0.615259616898584	2	RIGHT	28	1	1	0	0	189.032684502101	189.016105008812	189.032684502101
193.011777666183	4	30	TASK	2	1.10194490526419	2	RIGHT	28	1	0	1	36	194.006627585736	193.011777666183	194.006627585736
202.014268785102	4	31	TASK	2	1.16867963276673	2	RIGHT	28	1	0	1	14	203.009017447233	202.014268785102	203.009017447233
209.508060526523	4	32	TASK	2	0.99268338318825	1	LEFT	5	1	0	1	77	210.519390747812	209.508060526523	210.519390747812
216.007059401523	2	33	CONTROL	1	0.88282914547699	2	RIGHT	28	1	1	0	0	216.023676482523	216.007059401523	216.023676482523
220.516644126102	4	34	TASK	2	0.918655637477059	1	LEFT	5	1	0	1	87	221.511387469523	220.516644126102	221.511387469523
226.020953793812	4	35	TASK	2	1.76750842689853	1	LEFT	5	1	0	1	73	227.015625959102	226.020953793812	227.015625959102
240.013813013523	4	36	TASK	2	1.47977395847738	1	LEFT	5	1	0	1	94	241.008522670523	240.013813013523	241.008522670523
254.023177130523	4	37	TASK	2	1.21106991647684	1	LEFT	5	1	0	1	64	255.017931832523	254.023177130523	255.017931832523
261.516994256101	4	38	TASK	2	2.06505306866029	2	RIGHT	28	1	0	1	69	262.51184153534	261.516994256101	262.51184153534
280.019417897523	2	39	CONTROL	1	0.728755317660216	1	LEFT	5	1	1	0	0	280.03601241234	280.019417897523	280.03601241234
283.020152305101	4	40	TASK	2	3.26138627576665	2	RIGHT	28	1	0	1	97	284.015016789233	283.020152305101	284.015016789233
292.022706664523	4	41	TASK	2	0.877720320685512	1	LEFT	5	1	0	1	63	293.017523167315	292.022706664523	293.017523167315
297.527037276523	2	42	CONTROL	1	0.905322271188197	1	LEFT	5	1	1	0	0	297.543626189812	297.527037276523	297.543626189812
305.518158681523	2	43	CONTROL	1	0.696370762370861	1	LEFT	5	1	1	0	0	305.534817439629	305.518158681523	305.534817439629
316.510234809812	4	44	TASK	2	0.957070114974613	1	LEFT	5	1	0	1	70	317.505042276026	316.510234809812	317.505042276026
324.020521799523	4	45	TASK	2	0.964703458477288	1	LEFT	5	1	0	1	104	325.015363391523	324.020521799523	325.015363391523
331.017014960523	2	46	CONTROL	1	0.814379606898456	1	LEFT	5	1	1	0	0	331.033515120102	331.017014960523	331.033515120102
336.521333611523	4	47	TASK	2	1.52510526289871	2	RIGHT	28	1	0	1	45	337.516024255101	336.521333611523	337.516024255101
347.015941767523	4	48	TASK	2	2.07308510079201	2	RIGHT	28	1	0	1	83	348.010670083208	347.015941767523	348.010670083208
358.024507006523	2	49	CONTROL	1	0.667150465659688	1	LEFT	5	1	1	0	0	358.04110595634	358.024507006523	358.04110595634
363.014903807523	2	50	CONTROL	1	0.859960966477047	2	RIGHT	28	1	1	0	0	363.031387410523	363.014903807523	363.031387410523
370.508691586314	2	51	CONTROL	1	0.719946445766709	2	RIGHT	28	1	1	0	0	370.525278047233	370.508691586314	370.525278047233
376.526942466523	4	52	TASK	2	1.61872754723845	2	RIGHT	28	1	0	1	93	377.505129138762	376.526942466523	377.505129138762
383.523275938523	4	53	TASK	2	1.89474098547726	1	LEFT	5	1	0	1	46	384.518037191523	383.523275938523	384.518037191523
390.519721842812	4	54	TASK	2	1.45392372089873	2	RIGHT	28	1	0	1	96	391.514442777102	390.519721842812	391.514442777102
405.009998201523	4	55	TASK	2	1.18983516947719	2	RIGHT	28	1	0	1	49	406.021273123523	405.009998201523	406.021273123523
412.022933787812	4	56	TASK	2	1.70712846189872	2	RIGHT	28	1	0	1	103	413.017678226101	412.022933787812	413.017678226101
418.522019329523	4	57	TASK	2	0.948259200188204	2	RIGHT	28	1	0	1	66	419.516734727812	418.522019329523	419.516734727812
429.514005627812	4	58	TASK	2	1.37730228408191	2	RIGHT	28	1	0	1	48	430.508869473918	429.514005627812	430.508869473918
443.523471775812	4	59	TASK	2	0.948382515949561	2	RIGHT	28	1	0	1	99	444.518265599051	443.523471775812	444.518265599051
448.033044189233	4	60	TASK	2	2.14733538418795	1	LEFT	5	1	0	1	98	449.011108364812	448.033044189233	449.011108364812
453.023376531812	4	61	TASK	2	3.35934925518814	2	RIGHT	28	1	0	1	62	454.018094918812	453.023376531812	454.018094918812
459.505793013523	2	62	CONTROL	1	0.733369806477185	1	LEFT	5	1	1	0	0	459.522391261523	459.505793013523	459.522391261523
465.010128757315	4	63	TASK	2	1.18939046818787	1	LEFT	5	1	0	1	102	466.021414065812	465.010128757315	466.021414065812
473.515239134523	4	64	TASK	2	1.40309430497427	2	RIGHT	28	1	0	1	82	474.510010875026	473.515239134523	474.510010875026
