onset	duration	trial_number	trial_type	reaction_time	response_coded	response_str	pairno_rec	enc_codes_during_rec	onset_noTriggerAdjust
0.078613233834858	3	1	CORRECTLY	2.74315047016489	21	SURE_INCORRECT	3	6	0.078613233834858
4.52187163815461	3	2	INCORRECTLY	2.7681879748452	21	SURE_INCORRECT	55	0	4.52187163815461
13.0104010774949	2	3	CONTROL	1.29021516550483	5	n/a	1000	0	13.0104010774949
16.0610524322165	3	4	CORRECTLY	1.40438961178324	21	SURE_INCORRECT	12	0	16.0610524322165
21.0182157764948	3	5	CORRECTLY	1.18652250450486	21	SURE_INCORRECT	8	15	21.0182157764948
25.0634594198145	2	6	CONTROL	0.91058037218545	5	n/a	1000	0	25.0634594198145
29.0259614984948	3	7	INCORRECTLY	3.64384651650516	21	SURE_INCORRECT	59	0	29.0259614984948
36.0223480681548	3	8	CORRECTLY	n/a	n/a	n/a	7	13	36.0223480681548
40.5153902908969	3	9	INCORRECTLY	2.05176404710301	21	SURE_INCORRECT	68	0	40.5153902908969
47.0143755041545	3	10	INCORRECTLY	2.4176531348453	5	SURE_CORRECT	64	0	47.0143755041545
51.0762897541545	3	11	CORRECTLY	2.37429162384524	21	SURE_INCORRECT	6	12	51.0762897541545
56.0168815671545	2	12	CONTROL	0.91825241284505	5	n/a	1000	0	56.0168815671545
61.5211735828761	3	13	INCORRECTLY	1.82756982712363	21	SURE_INCORRECT	78	0	61.5211735828761
65.5664616844952	3	14	CORRECTLY	3.04305456050452	5	SURE_CORRECT	16	31	65.5664616844952
69.5620101414743	3	15	CORRECTLY	2.3492943285255	28	MAYBE_CORRECT	14	0	69.5620101414743
75.0166340321548	3	16	CORRECTLY	1.68412754284509	5	SURE_CORRECT	1	3	75.0166340321548
79.0619541648148	3	17	CORRECTLY	3.26747788718512	21	SURE_INCORRECT	5	11	79.0619541648148
83.5217951148147	3	18	INCORRECTLY	2.000547877185	21	SURE_INCORRECT	51	0	83.5217951148147
90.0207734414744	3	19	INCORRECTLY	2.6101066135252	21	SURE_INCORRECT	47	0	90.0207734414744
94.0827596691547	3	20	INCORRECTLY	1.94547698584529	5	SURE_CORRECT	66	0	94.0827596691547
99.0232964928146	3	21	CORRECTLY	3.72505220218545	28	MAYBE_CORRECT	10	20	99.0232964928146
103.068602818815	3	22	INCORRECTLY	3.794172169185	10	MAYBE_INCORRECT	48	0	103.068602818815
107.064254216154	3	23	INCORRECTLY	0.00863912584509308	10	MAYBE_INCORRECT	52	0	107.064254216154
115.022196327815	3	24	INCORRECTLY	3.5247979721853	21	SURE_INCORRECT	45	0	115.022196327815
119.515232291815	3	25	CORRECTLY	2.23119408418506	10	MAYBE_INCORRECT	9	18	119.515232291815
125.516888969474	3	26	INCORRECTLY	1.86179372652578	10	MAYBE_INCORRECT	42	0	125.516888969474
131.021138968815	3	27	INCORRECTLY	1.20297391018494	21	SURE_INCORRECT	80	0	131.021138968815
137.022860584815	3	28	CORRECTLY	1.39065232418534	5	SURE_CORRECT	2	5	137.022860584815
142.013180004154	2	29	CONTROL	1.64943908084524	10	n/a	1000	0	142.013180004154
145.063749740154	3	30	INCORRECTLY	3.22933971684552	10	MAYBE_INCORRECT	56	0	145.063749740154
150.518254724815	3	31	INCORRECTLY	2.7141533471854	10	MAYBE_INCORRECT	43	0	150.518254724815
155.011315213154	3	32	INCORRECTLY	3.4010299788456	21	SURE_INCORRECT	58	0	155.011315213154
159.520833000814	3	33	CORRECTLY	1.40081605018531	21	SURE_INCORRECT	4	9	159.520833000814
167.014551520474	3	34	CORRECTLY	1.78267365052579	5	SURE_CORRECT	13	0	167.014551520474
173.513651089474	3	35	CORRECTLY	2.06601709552569	21	SURE_INCORRECT	11	21	173.513651089474
178.520510186474	3	36	CORRECTLY	1.39974022752585	5	SURE_CORRECT	15	30	178.520510186474
182.565874617154	3	37	INCORRECTLY	2.13491588884563	21	SURE_INCORRECT	46	0	182.565874617154
188.517772598815	2	38	CONTROL	1.23890021818534	28	n/a	1000	0	188.517772598815
193.508168548175	2	39	CONTROL	0.786315576824109	28	n/a	1000	0	193.508168548175
198.017656076814	3	40	INCORRECTLY	2.10169286118617	21	SURE_INCORRECT	62	0	198.017656076814
203.008041212815	2	41	CONTROL	1.00682681018498	5	n/a	1000	0	203.008041212815
207.517621443474	2	42	CONTROL	1.45509360952565	21	n/a	1000	0	207.517621443474
211.015847313155	2	43	CONTROL	1.01499857184444	28	n/a	1000	0	211.015847313155
218.509591873814	3	44	INCORRECTLY	2.79667743318532	21	SURE_INCORRECT	49	0	218.509591873814
224.013939533237	3	45	CORRECTLY	2.04155141476258	5	SURE_CORRECT	27	47	224.013939533237
229.518136272814	3	46	CORRECTLY	3.31137715718523	21	SURE_INCORRECT	30	53	229.518136272814
235.022455834495	3	47	INCORRECTLY	2.34914070950435	21	SURE_INCORRECT	75	0	235.022455834495
244.505752013814	3	48	CORRECTLY	1.3787280451852	5	SURE_CORRECT	35	58	244.505752013814
252.016215182876	3	49	CORRECTLY	1.64605760812356	5	SURE_CORRECT	32	55	252.016215182876
256.061565294896	2	50	CONTROL	1.77094878610387	21	n/a	1000	0	256.061565294896
259.062276122814	3	51	INCORRECTLY	2.73659970618519	21	SURE_INCORRECT	70	0	259.062276122814
267.020307049474	2	52	CONTROL	0.935398119525416	21	n/a	1000	0	267.020307049474
272.524663874814	3	53	INCORRECTLY	1.69051263018537	21	SURE_INCORRECT	79	0	272.524663874814
277.514975294815	3	54	INCORRECTLY	2.30935176218554	21	SURE_INCORRECT	65	0	277.514975294815
282.007916820814	2	55	CONTROL	0.962325529185364	5	n/a	1000	0	282.007916820814
285.075134315814	3	56	INCORRECTLY	1.8485205011857	21	SURE_INCORRECT	53	0	285.075134315814
292.021791731155	3	57	INCORRECTLY	1.83831439584537	21	SURE_INCORRECT	76	0	292.021791731155
296.067043740474	2	58	CONTROL	0.789446470525945	5	n/a	1000	0	296.067043740474
300.012936225155	3	59	INCORRECTLY	1.38115143984487	21	SURE_INCORRECT	41	0	300.012936225155
305.517227265814	2	60	CONTROL	0.935610552185608	10	n/a	1000	0	305.517227265814
310.010201573155	3	61	INCORRECTLY	2.20656718684404	21	SURE_INCORRECT	63	0	310.010201573155
318.017975953155	3	62	CORRECTLY	1.93178143384466	5	SURE_CORRECT	38	61	318.017975953155
325.014372074155	3	63	CORRECTLY	1.2316131818443	5	SURE_CORRECT	24	41	325.014372074155
330.021274850814	3	64	CORRECTLY	1.27212766118555	21	SURE_INCORRECT	21	37	330.021274850814
335.525610598814	3	65	INCORRECTLY	2.0636147581863	21	SURE_INCORRECT	67	0	335.525610598814
341.527246235155	3	66	CORRECTLY	2.09820999384465	5	SURE_CORRECT	34	57	341.527246235155
346.517612999155	3	67	INCORRECTLY	1.54550896984438	21	SURE_INCORRECT	60	0	346.517612999155
351.027095973815	2	68	CONTROL	1.17599937918567	21	n/a	1000	0	351.027095973815
355.022704534814	3	69	CORRECTLY	1.40595414018571	5	SURE_CORRECT	22	38	355.022704534814
362.516494270155	3	70	CORRECTLY	1.67898208284532	21	SURE_INCORRECT	25	44	362.516494270155
367.009604570599	3	71	INCORRECTLY	n/a	n/a	n/a	71	0	367.009604570599
371.071376714155	3	72	INCORRECTLY	2.74907818584506	21	SURE_INCORRECT	57	0	371.071376714155
375.514663756155	3	73	CORRECTLY	2.19006690684546	5	SURE_CORRECT	19	35	375.514663756155
381.018866499474	2	74	CONTROL	1.19581750852558	28	n/a	1000	0	381.018866499474
386.009196637474	3	75	INCORRECTLY	2.27556500752598	5	SURE_CORRECT	74	0	386.009196637474
391.513542376814	2	76	CONTROL	1.07164247818582	10	n/a	1000	0	391.513542376814
395.509165549155	3	77	CORRECTLY	1.12805920684514	5	SURE_CORRECT	17	32	395.509165549155
401.013378606474	2	78	CONTROL	0.82631011952526	5	n/a	1000	0	401.013378606474
405.009062200155	3	79	INCORRECTLY	1.48640683984468	5	SURE_CORRECT	77	0	405.009062200155
409.518576079495	2	80	CONTROL	0.761072092504946	10	n/a	1000	0	409.518576079495
415.520222815155	3	81	INCORRECTLY	2.19893979984499	21	SURE_INCORRECT	44	0	415.520222815155
421.505291338495	3	82	CORRECTLY	2.56299012250474	5	SURE_CORRECT	40	64	421.505291338495
426.014957965278	3	83	CORRECTLY	2.13223239372201	21	SURE_INCORRECT	28	48	426.014957965278
430.060222645155	3	84	INCORRECTLY	2.46421684884535	5	SURE_CORRECT	50	0	430.060222645155
437.023494350814	3	85	INCORRECTLY	1.84800958618598	21	SURE_INCORRECT	72	0	437.023494350814
443.522450542474	3	86	INCORRECTLY	1.91196747352569	5	SURE_CORRECT	69	0	443.522450542474
447.567847163814	3	87	CORRECTLY	2.22806564718576	5	SURE_CORRECT	18	34	447.567847163814
452.508484477216	2	88	CONTROL	0.939130986783312	10	n/a	1000	0	452.508484477216
455.559039549556	2	89	CONTROL	0.852219799443446	28	n/a	1000	0	455.559039549556
462.024871680155	3	90	INCORRECTLY	1.46500045584435	21	SURE_INCORRECT	61	0	462.024871680155
466.070255125495	2	91	CONTROL	1.4801931575048	21	n/a	1000	0	466.070255125495
470.513389418155	3	92	INCORRECTLY	1.62491004084404	5	SURE_CORRECT	73	0	470.513389418155
474.558708777474	3	93	CORRECTLY	2.69291353752578	10	MAYBE_INCORRECT	29	52	474.558708777474
479.515905695474	3	94	CORRECTLY	2.17129593852496	10	MAYBE_INCORRECT	20	36	479.515905695474
484.522888015155	2	95	CONTROL	1.00251638384452	10	n/a	1000	0	484.522888015155
489.015863979155	3	96	CORRECTLY	1.4055773128448	5	SURE_CORRECT	31	54	489.015863979155
493.061133759155	3	97	CORRECTLY	1.75718715684434	5	SURE_CORRECT	23	40	493.061133759155
498.018366455155	3	98	CORRECTLY	1.66514040284437	5	SURE_CORRECT	37	60	498.018366455155
502.527891644495	3	99	CORRECTLY	1.62840369450441	21	SURE_INCORRECT	36	59	502.527891644495
506.573203420814	2	100	CONTROL	1.21954907118561	10	n/a	1000	0	506.573203420814
510.021730648495	3	101	INCORRECTLY	1.89949599450483	21	SURE_INCORRECT	54	0	510.021730648495
514.067008023155	3	102	CORRECTLY	1.64214308184455	21	SURE_INCORRECT	39	63	514.067008023155
518.062604612815	3	103	CORRECTLY	3.72871716918507	10	MAYBE_INCORRECT	33	56	518.062604612815
522.058222775155	3	104	CORRECTLY	1.36203051584471	5	SURE_CORRECT	26	45	522.058222775155
