onset	duration	trial_number	trial_type	trial_type_coded	reaction_time	expected_response_coded	response	response_coded	accuracy	accuracy_scrambled	accuracy_task	rec_codes_during_enc	onset_probe	onset_noTriggerAdjust	onset_probe_noTriggerAdjust
0.0130690712207979	2	1	CONTROL	1	1.21315756677905	1	LEFT	5	1	1	0	0	0.0462072952209382	0.0130690712207979	0.0462072952209382
4.50601063322074	2	2	CONTROL	1	1.28574475408323	2	RIGHT	28	1	1	0	0	4.52262271391646	4.50601063322074	4.52262271391646
11.5190167799901	4	3	TASK	2	0.809410778156689	1	LEFT	5	1	0	1	16	12.5138366778433	11.5190167799901	12.5138366778433
19.5102171409899	2	4	CONTROL	1	0.728319189009653	1	LEFT	5	1	1	0	0	19.52683659899	19.5102171409899	19.52683659899
22.0468572732207	4	5	TASK	2	1.21499729424022	2	RIGHT	28	1	0	1	28	23.0084802637598	22.0468572732207	23.0084802637598
38.5099232932207	4	6	TASK	2	0.657070849852971	1	LEFT	5	1	0	1	1	39.5048039381468	38.5099232932207	39.5048039381468
49.51854658499	2	7	CONTROL	1	0.612927626009423	2	RIGHT	28	1	1	0	0	49.5351648199903	49.51854658499	49.5351648199903
56.5149759764508	2	8	CONTROL	1	0.877450459779084	2	RIGHT	28	1	1	0	0	56.5316136902206	56.5149759764508	56.5316136902206
66.0149367179902	4	9	TASK	2	0.888647735157065	2	RIGHT	28	1	0	1	33	67.0096801988429	66.0149367179902	67.0096801988429
70.5244156977597	2	10	CONTROL	1	0.867112493779132	2	RIGHT	28	1	1	0	0	70.5409790962208	70.5244156977597	70.5409790962208
76.0121323042208	4	11	TASK	2	1.10683970823993	2	RIGHT	28	1	0	1	17	77.0069359827598	76.0121323042208	77.0069359827598
81.5163709214512	4	12	TASK	2	0.814349072009463	2	RIGHT	28	1	0	1	11	82.5111963989903	81.5163709214512	82.5111963989903
92.5250103469903	4	13	TASK	2	0.699170256009438	1	LEFT	5	1	0	1	8	93.5198024749902	92.5250103469903	93.5198024749902
98.0127617007597	2	14	CONTROL	1	0.799897112239705	1	LEFT	5	1	1	0	0	98.02936054576	98.0127617007597	98.02936054576
104.51174322099	4	15	TASK	2	0.824789679156765	1	LEFT	5	1	0	1	5	105.506622977843	104.51174322099	105.506622977843
109.021328677451	2	16	CONTROL	1	0.732105742544263	1	LEFT	5	1	1	0	0	109.037996730456	109.021328677451	109.037996730456
112.022117213451	2	17	CONTROL	1	0.847133585009942	2	RIGHT	28	1	1	0	0	112.03878156799	112.022117213451	112.03878156799
118.504618907221	4	18	TASK	2	0.712178991549081	2	RIGHT	28	1	0	1	25	119.515975613451	118.504618907221	119.515975613451
125.020289701221	2	19	CONTROL	1	0.96058829554886	1	LEFT	5	1	1	0	0	125.036767533451	125.020289701221	125.036767533451
129.015808446221	4	20	TASK	2	0.780401738009914	1	LEFT	5	1	0	1	21	130.01057072399	129.015808446221	130.01057072399
135.017496475451	4	21	TASK	2	0.781074496009751	2	RIGHT	28	1	0	1	35	136.01225967699	135.017496475451	136.01225967699
151.016421001221	4	22	TASK	2	0.601971644548485	1	LEFT	5	1	0	1	4	152.011161328451	151.016421001221	152.011161328451
155.525974064221	4	23	TASK	2	0.967584924239873	2	RIGHT	28	1	0	1	34	156.52073370176	155.525974064221	156.52073370176
161.01365977499	2	24	CONTROL	1	0.882922076009891	2	RIGHT	28	1	1	0	0	161.03028837099	161.01365977499	161.03028837099
165.00926839999	2	25	CONTROL	1	0.611329670779014	1	LEFT	5	1	1	0	0	165.025856462221	165.00926839999	165.025856462221
174.509235613843	2	26	CONTROL	1	0.909353263548837	2	RIGHT	28	1	1	0	0	174.525720147451	174.509235613843	174.525720147451
179.516110193221	2	27	CONTROL	1	0.593082648549171	2	RIGHT	28	1	1	0	0	179.532599471451	179.516110193221	179.532599471451
182.052740977221	4	28	TASK	2	0.902088978548818	2	RIGHT	28	1	0	1	15	183.014237552451	182.052740977221	183.014237552451
189.01594030899	2	29	CONTROL	1	0.941772621240034	2	RIGHT	28	1	1	0	0	189.03251665476	189.01594030899	189.03251665476
193.01153914276	4	30	TASK	2	1.0939776546179	2	RIGHT	28	1	0	1	36	194.006416048382	193.01153914276	194.006416048382
202.014090388221	4	31	TASK	2	0.968618645778861	2	RIGHT	28	1	0	1	14	203.008839278221	202.014090388221	203.008839278221
209.507865571221	4	32	TASK	2	0.63863495277883	1	LEFT	5	1	0	1	77	210.519153714221	209.507865571221	210.519153714221
216.006874109221	2	33	CONTROL	1	0.885833531010121	2	RIGHT	28	1	1	0	0	216.02349332199	216.006874109221	216.02349332199
220.516430582221	4	34	TASK	2	0.845967913779077	1	LEFT	5	1	0	1	87	221.511198880221	220.516430582221	221.511198880221
226.02073239599	4	35	TASK	2	0.796425664779235	1	LEFT	5	1	0	1	73	227.015444525221	226.02073239599	227.015444525221
240.01362331576	4	36	TASK	2	0.5991376681568	1	LEFT	5	1	0	1	94	241.008381652843	240.01362331576	241.008381652843
254.02296947399	4	37	TASK	2	0.819035187778809	1	LEFT	5	1	0	1	64	255.017728670221	254.02296947399	255.017728670221
261.516847913221	4	38	TASK	2	1.22474465324012	2	RIGHT	28	1	0	1	69	262.51157449276	261.516847913221	262.51157449276
280.019207233221	2	39	CONTROL	1	0.660977998774342	1	LEFT	5	1	1	0	0	280.035809753225	280.019207233221	280.035809753225
283.020019473451	4	40	TASK	2	0.79979774254889	2	RIGHT	28	1	0	1	97	284.014723023451	283.020019473451	284.014723023451
292.005962852995	4	41	TASK	2	0.895167125156604	1	LEFT	5	1	0	1	63	293.017334740843	292.005962852995	293.017334740843
297.526850516451	2	42	CONTROL	1	0.930138293009804	1	LEFT	5	1	1	0	0	297.54342429399	297.526850516451	297.54342429399
305.51802288099	2	43	CONTROL	1	0.564280952313311	1	LEFT	5	1	1	0	0	305.534648899687	305.51802288099	305.534648899687
316.510015925221	4	44	TASK	2	0.853630056387374	1	LEFT	5	1	0	1	70	317.504874781613	316.510015925221	317.504874781613
324.020384433221	4	45	TASK	2	1.2972791380098	1	LEFT	5	1	0	1	104	325.01513591799	324.020384433221	325.01513591799
331.016841156221	2	46	CONTROL	1	0.649870952009678	1	LEFT	5	1	1	0	0	331.03337615099	331.016841156221	331.03337615099
336.52114763799	4	47	TASK	2	0.873282141009895	2	RIGHT	28	1	0	1	45	337.51587486099	336.52114763799	337.51587486099
347.01572626699	4	48	TASK	2	0.912569603156498	2	RIGHT	28	1	0	1	83	348.010555139843	347.01572626699	348.010555139843
358.007777313451	2	49	CONTROL	1	0.823619193313334	1	LEFT	5	1	1	0	0	358.024336615686	358.007777313451	358.024336615686
363.01461893199	2	50	CONTROL	1	0.816671077009687	2	RIGHT	28	1	1	0	0	363.03126080999	363.01461893199	363.03126080999
370.50851482876	2	51	CONTROL	1	0.787476552156477	2	RIGHT	28	1	1	0	0	370.525109168843	370.50851482876	370.525109168843
376.510228690843	4	52	TASK	2	0.933995247778967	2	RIGHT	28	1	0	1	93	377.521451851221	376.510228690843	377.521451851221
383.50660604176	4	53	TASK	2	0.812732809778936	1	LEFT	5	1	0	1	46	384.517906118221	383.50660604176	384.517906118221
390.519590294221	4	54	TASK	2	1.23813334200986	2	RIGHT	28	1	0	1	96	391.51427827699	390.519590294221	391.51427827699
405.009895876534	4	55	TASK	2	0.877810237387166	2	RIGHT	28	1	0	1	49	406.004667256613	405.009895876534	406.004667256613
412.006164077221	4	56	TASK	2	0.903964521009584	2	RIGHT	28	1	0	1	103	413.01754048699	412.006164077221	413.01754048699
418.52185548199	4	57	TASK	2	0.905783413009431	2	RIGHT	28	1	0	1	66	419.51656471099	418.52185548199	419.51656471099
429.513881969221	4	58	TASK	2	0.924654842779091	2	RIGHT	28	1	0	1	48	430.508543782221	429.513881969221	430.508543782221
443.52328007199	4	59	TASK	2	0.770477754548665	2	RIGHT	28	1	0	1	99	444.517976924451	443.52328007199	444.517976924451
448.032774379221	4	60	TASK	2	1.25948058000995	1	LEFT	5	1	0	1	98	449.01096026899	448.032774379221	449.01096026899
453.023110501221	4	61	TASK	2	0.878649959779068	2	RIGHT	28	1	0	1	62	454.017858850221	453.023110501221	454.017858850221
459.52220571299	2	62	CONTROL	1	0.895771139779299	1	LEFT	5	1	1	0	0	459.538721059221	459.52220571299	459.538721059221
465.026467687221	4	63	TASK	2	0.815765248779371	1	LEFT	5	1	0	1	102	466.021260590221	465.026467687221	466.021260590221
473.515021272221	4	64	TASK	2	1.04043118515665	2	RIGHT	28	1	0	1	82	474.509846435843	473.515021272221	474.509846435843
