onset	duration	trial_number	trial_type	trial_type_coded	reaction_time	expected_response_coded	response	response_coded	accuracy	accuracy_scrambled	accuracy_task	rec_codes_during_enc	onset_probe	onset_noTriggerAdjust	onset_probe_noTriggerAdjust
0.0157674249999218	2	1	CONTROL	1	n/a	1	n/a	n/a	0	0	0	0	0.0323759569998856	0.0157674249999218	0.0323759569998856
4.51657381099994	2	2	CONTROL	1	0.895208429999911	2	RIGHT	28	1	1	0	0	4.53309945899991	4.51657381099994	4.53309945899991
11.5159710979999	4	3	TASK	2	1.27747064999994	1	LEFT	5	1	0	1	16	12.5087299879999	11.5159710979999	12.5087299879999
19.5246993219998	2	4	CONTROL	1	0.943519426999956	1	LEFT	5	1	1	0	0	19.5411373009999	19.5246993219998	19.5411373009999
22.0563355239999	4	5	TASK	2	1.59011133299987	2	RIGHT	28	1	0	1	28	23.016019147	22.0563355239999	23.016019147
38.5038737169998	4	6	TASK	2	1.03128016600022	1	LEFT	5	1	0	1	1	39.5131820539998	38.5038737169998	39.5131820539998
49.507565766	2	7	CONTROL	1	0.77665554500004	2	RIGHT	28	1	1	0	0	49.5240855939999	49.507565766	49.5240855939999
56.523433526	2	8	CONTROL	1	0.988596334000022	2	RIGHT	28	1	1	0	0	56.5399633889999	56.523433526	56.5399633889999
66.0213473459999	4	9	TASK	2	1.15760537600022	2	RIGHT	28	1	0	1	33	67.0141949089998	66.0213473459999	67.0141949089998
70.5221503749999	2	10	CONTROL	1	1.08146031699994	2	RIGHT	28	1	1	0	0	70.5386590819999	70.5221503749999	70.5386590819999
76.015653447	4	11	TASK	2	0.826905978000013	2	RIGHT	28	1	0	1	17	77.0084908869999	76.015653447	77.0084908869999
81.5092378329998	4	12	TASK	2	0.846361186999957	2	RIGHT	28	1	0	1	11	82.5020600159999	81.5092378329998	82.5020600159999
92.5128583349999	4	13	TASK	2	0.927631646999998	1	LEFT	5	1	0	1	8	93.5057180179999	92.5128583349999	93.5057180179999
98.0230058299999	2	14	CONTROL	1	0.870441093999943	1	LEFT	5	1	1	0	0	98.0395543719999	98.0230058299999	98.0395543719999
104.509405391	4	15	TASK	2	0.915408888999991	1	LEFT	5	1	0	1	5	105.502179126	104.509405391	105.502179126
109.010158071	2	16	CONTROL	1	0.76583026000003	1	LEFT	5	1	1	0	0	109.026703676	109.010158071	109.026703676
112.021687267	2	17	CONTROL	1	0.993166052000106	2	RIGHT	28	1	1	0	0	112.038224714	112.021687267	112.038224714
118.508036574	4	18	TASK	2	1.05236184599994	2	RIGHT	28	1	0	1	25	119.517416495	118.508036574	119.517416495
125.010947686	2	19	CONTROL	1	1.05706973299993	1	LEFT	5	1	1	0	0	125.027489143	125.010947686	125.027489143
129.015300609	4	20	TASK	2	1.54754097599994	1	LEFT	5	1	0	1	21	130.008167542	129.015300609	130.008167542
135.005282311	4	21	TASK	2	0.966950321000013	2	RIGHT	28	1	0	1	35	136.014615577	135.005282311	136.014615577
151.02270999	4	22	TASK	2	1.39388951299998	1	LEFT	5	1	0	1	4	152.015523137	151.02270999	152.015523137
155.523408697	4	23	TASK	2	0.901193985999953	2	RIGHT	28	1	0	1	34	156.516241598	155.523408697	156.516241598
161.017052018	2	24	CONTROL	1	0.816040473000157	2	RIGHT	28	1	1	0	0	161.033598102	161.017052018	161.033598102
165.021315701	2	25	CONTROL	1	0.673071315000016	1	LEFT	5	1	1	0	0	165.037894126	165.021315701	165.037894126
174.502737825	2	26	CONTROL	1	0.742410467999889	2	RIGHT	28	1	1	0	0	174.519279039	174.502737825	174.519279039
179.516484339	2	27	CONTROL	1	0.811393656999826	2	RIGHT	28	1	1	0	0	179.532943661	179.516484339	179.532943661
182.048084555	4	28	TASK	2	1.31754948800017	2	RIGHT	28	1	0	1	15	183.00789035	182.048084555	183.00789035
189.014379569	2	29	CONTROL	1	0.890726085000097	2	RIGHT	28	1	1	0	0	189.030887475	189.014379569	189.030887475
193.018680327	4	30	TASK	2	1.137252558	2	RIGHT	28	1	0	1	36	194.011521938	193.018680327	194.011521938
202.020203156	4	31	TASK	2	1.18325526600006	2	RIGHT	28	1	0	1	14	203.013011136	202.020203156	203.013011136
209.515906199	4	32	TASK	2	0.753824562000091	1	LEFT	5	1	0	1	77	210.508740591	209.515906199	210.508740591
216.018869921	2	33	CONTROL	1	0.986536233000152	2	RIGHT	28	1	1	0	0	216.03540124	216.018869921	216.03540124
220.519612421	4	34	TASK	2	1.68050467600006	1	LEFT	5	1	0	1	87	221.512379855	220.519612421	221.512379855
226.013183798	4	35	TASK	2	1.00200071099994	1	LEFT	5	1	0	1	73	227.006029016	226.013183798	227.006029016
240.011837262	4	36	TASK	2	0.998812437999959	1	LEFT	5	1	0	1	94	241.004636583	240.011837262	241.004636583
254.010523811	4	37	TASK	2	1.650155885	1	LEFT	5	1	0	1	64	255.003308022	254.010523811	255.003308022
261.522765509	4	38	TASK	2	0.702446217999977	2	RIGHT	28	1	0	1	69	262.515596888	261.522765509	262.515596888
280.005600149	2	39	CONTROL	1	0.942319275000045	1	LEFT	5	1	1	0	0	280.022188192	280.005600149	280.022188192
283.017181696	4	40	TASK	2	0.92456177300005	2	RIGHT	28	1	0	1	97	284.01002628	283.017181696	284.01002628
292.018706918	4	41	TASK	2	1.33213061000015	1	LEFT	5	1	0	1	63	293.01144857	292.018706918	293.01144857
297.512254517	2	42	CONTROL	1	1.34730399999989	1	LEFT	5	1	1	0	0	297.528833332	297.512254517	297.528833332
305.520915912	2	43	CONTROL	1	0.709130403000017	1	LEFT	5	1	1	0	0	305.537498724	305.520915912	305.537498724
316.508048754	4	44	TASK	2	0.786891083	1	LEFT	5	1	0	1	70	317.517442356	316.508048754	317.517442356
324.003768838	4	45	TASK	2	0.922858743999996	1	LEFT	5	1	0	1	104	325.013137311	324.003768838	325.013137311
331.019707823	2	46	CONTROL	1	0.594723924999926	1	LEFT	5	1	1	0	0	331.036293785	331.019707823	331.036293785
336.513321331	4	47	TASK	2	0.957600828000068	2	RIGHT	28	1	0	1	45	337.506072886	336.513321331	337.506072886
347.004019191	4	48	TASK	2	0.860400853000101	2	RIGHT	28	1	0	1	83	348.013397953	347.004019191	348.013397953
358.024198062	2	49	CONTROL	1	0.985842453000032	1	LEFT	5	1	1	0	0	358.040815605	358.024198062	358.040815605
363.021388272	2	50	CONTROL	1	0.727752753000004	2	RIGHT	28	1	1	0	0	363.037914348	363.021388272	363.037914348
370.517091022	2	51	CONTROL	1	0.719229710000036	2	RIGHT	28	1	1	0	0	370.533618259	370.517091022	370.533618259
376.507106912	4	52	TASK	2	0.871659794999914	2	RIGHT	28	1	0	1	93	377.516479805	376.507106912	377.516479805
383.506384857	4	53	TASK	2	1.21167813800002	1	LEFT	5	1	0	1	46	384.515772441	383.506384857	384.515772441
390.5057967	4	54	TASK	2	1.05162098600022	2	RIGHT	28	1	0	1	96	391.515145348	390.5057967	391.515145348
405.017350347	4	55	TASK	2	0.891576346000193	2	RIGHT	28	1	0	1	49	406.010147553	405.017350347	406.010147553
412.016743472	4	56	TASK	2	0.89292126600003	2	RIGHT	28	1	0	1	103	413.009523695	412.016743472	413.009523695
418.503109099	4	57	TASK	2	0.789657505999912	2	RIGHT	28	1	0	1	66	419.512397326	418.503109099	419.512397326
429.50671606	4	58	TASK	2	0.958837264000067	2	RIGHT	28	1	0	1	48	430.516166037	429.50671606	430.516166037
443.52196742	4	59	TASK	2	0.732187013000157	2	RIGHT	28	1	0	1	99	444.514761136	443.52196742	444.514761136
448.022703636	4	60	TASK	2	0.933180154000183	1	LEFT	5	1	0	1	98	449.015558344	448.022703636	449.015558344
453.01986126	4	61	TASK	2	0.932516035000162	2	RIGHT	28	1	0	1	62	454.012652415	453.01986126	454.012652415
459.52279539	2	62	CONTROL	1	1.08329931599997	1	LEFT	5	1	1	0	0	459.539313078	459.52279539	459.539313078
465.016330038	4	63	TASK	2	0.889372470000126	1	LEFT	5	1	0	1	102	466.009141185	465.016330038	466.009141185
473.521509437	4	64	TASK	2	1.13728435300004	2	RIGHT	28	1	0	1	82	474.514272998	473.521509437	474.514272998
