onset	duration	trial_number	trial_type	reaction_time	response_coded	response_str	pairno_rec	enc_codes_during_rec	onset_noTriggerAdjust
0.0787441480315465	3	1	CORRECTLY	3.70848851296796	10	MAYBE_INCORRECT	3	6	0.0787441480315465
4.52198763803244	3	2	INCORRECTLY	2.14154889296697	21	SURE_INCORRECT	55	0	4.52198763803244
13.0105483360658	2	3	CONTROL	1.46630370393359	5	n/a	1000	0	13.0105483360658
16.0611509020309	3	4	CORRECTLY	2.05214485696888	5	SURE_CORRECT	12	0	16.0611509020309
21.0182687410324	3	5	CORRECTLY	1.40888002296742	5	SURE_CORRECT	8	15	21.0182687410324
25.0636650195484	2	6	CONTROL	1.37015889445138	28	n/a	1000	0	25.0636650195484
29.009422295032	3	7	INCORRECTLY	2.61973327396663	21	SURE_INCORRECT	59	0	29.009422295032
36.0224882680322	3	8	CORRECTLY	1.64369905396779	5	SURE_CORRECT	7	13	36.0224882680322
40.5154290520313	3	9	INCORRECTLY	1.54858880096799	21	SURE_INCORRECT	68	0	40.5154290520313
47.0144917555481	3	10	INCORRECTLY	1.44278649245098	21	SURE_INCORRECT	64	0	47.0144917555481
51.076391814513	3	11	CORRECTLY	1.51328833548541	21	SURE_INCORRECT	6	12	51.076391814513
56.0170270500312	2	12	CONTROL	1.39625049796814	5	n/a	1000	0	56.0170270500312
61.5212836375485	3	13	INCORRECTLY	1.42087688045103	21	SURE_INCORRECT	78	0	61.5212836375485
65.5666313470319	3	14	CORRECTLY	1.8178437189672	5	SURE_CORRECT	16	31	65.5666313470319
69.5788205035478	3	15	CORRECTLY	1.47782845945221	5	SURE_CORRECT	14	0	69.5788205035478
75.0167970081693	3	16	CORRECTLY	1.10158256883005	5	SURE_CORRECT	1	3	75.0167970081693
79.0786297155137	3	17	CORRECTLY	1.49959722748645	5	SURE_CORRECT	5	11	79.0786297155137
83.5218881995479	3	18	INCORRECTLY	1.34744168045108	21	SURE_INCORRECT	51	0	83.5218881995479
90.0210301478601	3	19	INCORRECTLY	1.76919417313911	21	SURE_INCORRECT	47	0	90.0210301478601
94.0662857195475	3	20	INCORRECTLY	1.3598507554525	21	SURE_INCORRECT	66	0	94.0662857195475
99.0068371260313	3	21	CORRECTLY	1.54756105196793	5	SURE_CORRECT	10	20	99.0068371260313
103.068744725548	3	22	INCORRECTLY	1.59530000545237	21	SURE_INCORRECT	48	0	103.068744725548
107.064371476548	3	23	INCORRECTLY	1.70230696245017	21	SURE_INCORRECT	52	0	107.064371476548
115.022314093032	3	24	INCORRECTLY	1.79570909096765	21	SURE_INCORRECT	45	0	115.022314093032
119.515304634031	3	25	CORRECTLY	1.81738802296786	21	SURE_INCORRECT	9	18	119.515304634031
125.517030481547	3	26	INCORRECTLY	1.91165869145152	21	SURE_INCORRECT	42	0	125.517030481547
131.021278168513	3	27	INCORRECTLY	1.93341864748618	21	SURE_INCORRECT	80	0	131.021278168513
137.022977921031	3	28	CORRECTLY	1.54650061996836	5	SURE_CORRECT	2	5	137.022977921031
142.013306222549	2	29	CONTROL	1.3262045124502	10	n/a	1000	0	142.013306222549
145.063881011547	3	30	INCORRECTLY	1.65089054045166	21	SURE_INCORRECT	56	0	145.063881011547
150.518377736031	3	31	INCORRECTLY	1.68624039496899	21	SURE_INCORRECT	43	0	150.518377736031
155.011431120067	3	32	INCORRECTLY	1.50054782693223	21	SURE_INCORRECT	58	0	155.011431120067
159.520877762514	3	33	CORRECTLY	1.63107768348527	5	SURE_CORRECT	4	9	159.520877762514
167.014721612548	3	34	CORRECTLY	1.54637120745065	5	SURE_CORRECT	13	0	167.014721612548
173.513793382548	3	35	CORRECTLY	1.40872852845132	5	SURE_CORRECT	11	21	173.513793382548
178.520754762067	3	36	CORRECTLY	1.86344352593187	5	SURE_CORRECT	15	30	178.520754762067
182.565995744031	3	37	INCORRECTLY	2.00489441596801	21	SURE_INCORRECT	46	0	182.565995744031
188.518009599031	2	38	CONTROL	1.35927612596788	28	n/a	1000	0	188.518009599031
193.508326404582	2	39	CONTROL	1.01728387241747	28	n/a	1000	0	193.508326404582
198.017854231548	3	40	INCORRECTLY	1.71031629845129	21	SURE_INCORRECT	62	0	198.017854231548
203.024732079031	2	41	CONTROL	0.972827416968357	5	n/a	1000	0	203.024732079031
207.517755146548	2	42	CONTROL	1.1138811414512	21	n/a	1000	0	207.517755146548
211.015979391548	2	43	CONTROL	1.12417904945141	28	n/a	1000	0	211.015979391548
218.526318293032	3	44	INCORRECTLY	1.79064244696747	21	SURE_INCORRECT	49	0	218.526318293032
224.01411080986	3	45	CORRECTLY	1.59298251713881	5	SURE_CORRECT	27	47	224.01411080986
229.518271318513	3	46	CORRECTLY	1.19359158748557	5	SURE_CORRECT	30	53	229.518271318513
235.022665953547	3	47	INCORRECTLY	1.63875062445186	21	SURE_INCORRECT	75	0	235.022665953547
244.505959705066	3	48	CORRECTLY	1.43860924893306	5	SURE_CORRECT	35	58	244.505959705066
252.016293430066	3	49	CORRECTLY	1.89803561093322	21	SURE_INCORRECT	32	55	252.016293430066
256.078167605032	2	50	CONTROL	1.30954709396792	21	n/a	1000	0	256.078167605032
259.079023839513	3	51	INCORRECTLY	1.38450284448663	21	SURE_INCORRECT	70	0	259.079023839513
267.020480100031	2	52	CONTROL	1.22952312896814	21	n/a	1000	0	267.020480100031
272.524739598513	3	53	INCORRECTLY	1.50991311748658	21	SURE_INCORRECT	79	0	272.524739598513
277.515121864066	3	54	INCORRECTLY	1.47222600593341	21	SURE_INCORRECT	65	0	277.515121864066
282.024621034032	2	55	CONTROL	1.0646071059673	5	n/a	1000	0	282.024621034032
285.058617431549	3	56	INCORRECTLY	1.27608022845016	21	SURE_INCORRECT	53	0	285.058617431549
292.021857535514	3	57	INCORRECTLY	2.04108366248511	21	SURE_INCORRECT	76	0	292.021857535514
296.067258780547	2	58	CONTROL	0.946327304451188	5	n/a	1000	0	296.067258780547
300.013152839687	3	59	INCORRECTLY	1.29815115731253	21	SURE_INCORRECT	41	0	300.013152839687
305.517376087548	2	60	CONTROL	1.20683538745106	10	n/a	1000	0	305.517376087548
310.010356594066	3	61	INCORRECTLY	1.85990348793348	21	SURE_INCORRECT	63	0	310.010356594066
318.018129680066	3	62	CORRECTLY	1.39472781393306	5	SURE_CORRECT	38	61	318.018129680066
325.014464881548	3	63	CORRECTLY	1.0188646764509	5	SURE_CORRECT	24	41	325.014464881548
330.021541771377	3	64	CORRECTLY	1.54406329162157	5	SURE_CORRECT	21	37	330.021541771377
335.509280605378	3	65	INCORRECTLY	1.74108902862099	5	SURE_CORRECT	67	0	335.509280605378
341.510891039859	3	66	CORRECTLY	1.35610987314067	5	SURE_CORRECT	34	57	341.510891039859
346.517711822547	3	67	INCORRECTLY	1.71122094845123	21	SURE_INCORRECT	60	0	346.517711822547
351.010750370066	2	68	CONTROL	1.05497169393311	21	n/a	1000	0	351.010750370066
355.006311435582	3	69	CORRECTLY	1.3480261164168	5	SURE_CORRECT	22	38	355.006311435582
362.516761376377	3	70	CORRECTLY	1.63958148262282	5	SURE_CORRECT	25	44	362.516761376377
367.009649007548	3	71	INCORRECTLY	1.1350967244507	21	SURE_INCORRECT	71	0	367.009649007548
371.055024970377	3	72	INCORRECTLY	1.54290003562164	21	SURE_INCORRECT	57	0	371.055024970377
375.514780806032	3	73	CORRECTLY	1.299173012967	5	SURE_CORRECT	19	35	375.514780806032
381.019036962547	2	74	CONTROL	1.16067962345187	28	n/a	1000	0	381.019036962547
386.009416284547	3	75	INCORRECTLY	1.14674266345173	21	SURE_INCORRECT	74	0	386.009416284547
391.51372449486	2	76	CONTROL	1.08767672713839	10	n/a	1000	0	391.51372449486
395.509313459032	3	77	CORRECTLY	1.87242435496773	5	SURE_CORRECT	17	32	395.509313459032
401.013529193031	2	78	CONTROL	0.899940704968685	5	n/a	1000	0	401.013529193031
405.009152598032	3	79	INCORRECTLY	1.56670866196691	21	SURE_INCORRECT	77	0	405.009152598032
409.518773702859	2	80	CONTROL	1.35460322314066	10	n/a	1000	0	409.518773702859
415.520331240548	3	81	INCORRECTLY	1.58198058145172	21	SURE_INCORRECT	44	0	415.520331240548
421.505399624031	3	82	CORRECTLY	2.34437077296752	5	SURE_CORRECT	40	64	421.505399624031
426.014954323513	3	83	CORRECTLY	1.58164675448643	5	SURE_CORRECT	28	48	426.014954323513
430.060380868859	3	84	INCORRECTLY	1.1800714341407	21	SURE_INCORRECT	50	0	430.060380868859
437.023682617859	3	85	INCORRECTLY	2.31543509713993	21	SURE_INCORRECT	72	0	437.023682617859
443.506043709169	3	86	INCORRECTLY	1.68476133983131	21	SURE_INCORRECT	69	0	443.506043709169
447.568090276896	3	87	CORRECTLY	1.34425786610336	5	SURE_CORRECT	18	34	447.568090276896
452.52527818286	2	88	CONTROL	1.03702009213885	10	n/a	1000	0	452.52527818286
455.575741564031	2	89	CONTROL	1.12620809896907	28	n/a	1000	0	455.575741564031
462.008386050031	3	90	INCORRECTLY	1.49708633596856	21	SURE_INCORRECT	61	0	462.008386050031
466.070464065378	2	91	CONTROL	1.01517288961986	10	n/a	1000	0	466.070464065378
470.513550096101	3	92	INCORRECTLY	1.51227121089869	21	SURE_INCORRECT	73	0	470.513550096101
474.575466890514	3	93	CORRECTLY	1.37086034848471	5	SURE_CORRECT	29	52	474.575466890514
479.516071762548	3	94	CORRECTLY	1.15830370745243	5	SURE_CORRECT	20	36	479.516071762548
484.506364570514	2	95	CONTROL	1.09956823348512	10	n/a	1000	0	484.506364570514
489.015964766548	3	96	CORRECTLY	1.32392027545211	5	SURE_CORRECT	31	54	489.015964766548
493.06134117386	3	97	CORRECTLY	1.62638083113961	5	SURE_CORRECT	23	40	493.06134117386
498.018494925547	3	98	CORRECTLY	2.40487978445162	10	MAYBE_INCORRECT	37	60	498.018494925547
502.511379254513	3	99	CORRECTLY	2.43029851848587	21	SURE_INCORRECT	36	59	502.511379254513
506.573285145514	2	100	CONTROL	1.31220965248576	21	n/a	1000	0	506.573285145514
510.021847788032	3	101	INCORRECTLY	1.70993168396672	21	SURE_INCORRECT	54	0	510.021847788032
514.067146086549	3	102	CORRECTLY	1.13755471145123	5	SURE_CORRECT	39	63	514.067146086549
518.079251747031	3	103	CORRECTLY	1.22681900696807	5	SURE_CORRECT	33	56	518.079251747031
522.058278014581	3	104	CORRECTLY	1.65303401441815	5	SURE_CORRECT	26	45	522.058278014581
