onset	duration	trial_number	trial_type	reaction_time	response_coded	response_str	pairno_rec	enc_codes_during_rec	onset_noTriggerAdjust
0.0788487207382786	3	1	CORRECTLY	1.85310262526173	5	SURE_CORRECT	3	6	0.0788487207382786
4.52207890073851	3	2	INCORRECTLY	1.6539218472617	21	SURE_INCORRECT	55	0	4.52207890073851
13.0105808883286	2	3	CONTROL	1.24464854967164	5	n/a	1000	0	13.0105808883286
16.061238747574	3	4	CORRECTLY	1.88461378242619	10	MAYBE_INCORRECT	12	0	16.061238747574
21.0184079323285	3	5	CORRECTLY	1.18393417667176	5	SURE_CORRECT	8	15	21.0184079323285
25.0636722660333	2	6	CONTROL	0.876918125966768	28	n/a	1000	0	25.0636722660333
29.0261738026234	3	7	INCORRECTLY	1.8285212243768	21	SURE_INCORRECT	59	0	29.0261738026234
36.0226025446395	3	8	CORRECTLY	1.90853252136048	5	SURE_CORRECT	7	13	36.0226025446395
40.5156039061644	3	9	INCORRECTLY	1.53605289283587	21	SURE_INCORRECT	68	0	40.5156039061644
47.0145430363286	3	10	INCORRECTLY	1.86418633867152	5	SURE_CORRECT	64	0	47.0145430363286
51.0598998000332	3	11	CORRECTLY	2.6427205429668	5	SURE_CORRECT	6	12	51.0598998000332
56.0170990613287	2	12	CONTROL	0.819516461671356	5	n/a	1000	0	56.0170990613287
61.5213920461642	3	13	INCORRECTLY	1.54230124883588	21	SURE_INCORRECT	78	0	61.5213920461642
65.5666448210332	3	14	CORRECTLY	1.67415909396686	21	SURE_INCORRECT	16	31	65.5666448210332
69.5788217210334	3	15	CORRECTLY	1.45685748396681	5	SURE_CORRECT	14	0	69.5788217210334
75.0168510453286	3	16	CORRECTLY	1.2986750596715	5	SURE_CORRECT	1	3	75.0168510453286
79.0786882273287	3	17	CORRECTLY	1.41827550567132	5	SURE_CORRECT	5	11	79.0786882273287
83.5219728613288	3	18	INCORRECTLY	1.28667639567129	21	SURE_INCORRECT	51	0	83.5219728613288
90.0210456190334	3	19	INCORRECTLY	1.89870393496676	21	SURE_INCORRECT	47	0	90.0210456190334
94.0662821840333	3	20	INCORRECTLY	1.28592812396664	21	SURE_INCORRECT	66	0	94.0662821840333
99.0234532680333	3	21	CORRECTLY	1.35664454796688	5	SURE_CORRECT	10	20	99.0234532680333
103.068857744328	3	22	INCORRECTLY	1.22620614367179	21	SURE_INCORRECT	48	0	103.068857744328
107.064438822329	3	23	INCORRECTLY	1.48606224367131	21	SURE_INCORRECT	52	0	107.064438822329
115.00595577523	3	24	INCORRECTLY	1.36786466177045	21	SURE_INCORRECT	45	0	115.00595577523
119.515342472033	3	25	CORRECTLY	1.61195696696677	5	SURE_CORRECT	9	18	119.515342472033
125.517037449329	3	26	INCORRECTLY	1.55405737167121	21	SURE_INCORRECT	42	0	125.517037449329
131.021319078739	3	27	INCORRECTLY	0.994738449261604	21	SURE_INCORRECT	80	0	131.021319078739
137.023047752329	3	28	CORRECTLY	1.79354440067118	5	SURE_CORRECT	2	5	137.023047752329
142.013366091033	2	29	CONTROL	1.58207246796701	10	n/a	1000	0	142.013366091033
145.080542578329	3	30	INCORRECTLY	1.40445031567151	21	SURE_INCORRECT	56	0	145.080542578329
150.518501562329	3	31	INCORRECTLY	1.54401981967112	21	SURE_INCORRECT	43	0	150.518501562329
155.011520475279	3	32	INCORRECTLY	1.27660332372125	21	SURE_INCORRECT	58	0	155.011520475279
159.504493862689	3	33	CORRECTLY	1.76772767731109	5	SURE_CORRECT	4	9	159.504493862689
167.014821646329	3	34	CORRECTLY	0.85414330767162	5	SURE_CORRECT	13	0	167.014821646329
173.513800968738	3	35	CORRECTLY	0.94519961926153	5	SURE_CORRECT	11	21	173.513800968738
178.520812064033	3	36	CORRECTLY	1.66341547696675	10	MAYBE_INCORRECT	15	30	178.520812064033
182.566150787623	3	37	INCORRECTLY	1.24086876037654	10	MAYBE_INCORRECT	46	0	182.566150787623
188.518070061623	2	38	CONTROL	1.14770913537677	28	n/a	1000	0	188.518070061623
193.508392814033	2	39	CONTROL	1.0415162459667	28	n/a	1000	0	193.508392814033
198.017866020033	3	40	INCORRECTLY	1.58916592196692	21	SURE_INCORRECT	62	0	198.017866020033
203.024849195328	2	41	CONTROL	0.912041971671442	5	n/a	1000	0	203.024849195328
207.517809602329	2	42	CONTROL	1.00517417667152	21	n/a	1000	0	207.517809602329
211.016096369574	2	43	CONTROL	1.00407604542579	28	n/a	1000	0	211.016096369574
218.509745735033	3	44	INCORRECTLY	2.40040394596645	21	SURE_INCORRECT	49	0	218.509745735033
224.014100981033	3	45	CORRECTLY	1.1802957329669	5	SURE_CORRECT	27	47	224.014100981033
229.518401126033	3	46	CORRECTLY	3.21898564996673	5	SURE_CORRECT	30	53	229.518401126033
235.006069686033	3	47	INCORRECTLY	1.51044893996686	21	SURE_INCORRECT	75	0	235.006069686033
244.522564078329	3	48	CORRECTLY	1.46265577467148	5	SURE_CORRECT	35	58	244.522564078329
252.016341284033	3	49	CORRECTLY	1.52890405796688	5	SURE_CORRECT	32	55	252.016341284033
256.078255628328	2	50	CONTROL	1.25098816767149	21	n/a	1000	0	256.078255628328
259.079104239624	3	51	INCORRECTLY	1.30976139837639	21	SURE_INCORRECT	70	0	259.079104239624
267.020549508329	2	52	CONTROL	1.02735093467118	21	n/a	1000	0	267.020549508329
272.524781957738	3	53	INCORRECTLY	1.61244709526181	21	SURE_INCORRECT	79	0	272.524781957738
277.515157987033	3	54	INCORRECTLY	2.3642531999667	21	SURE_INCORRECT	65	0	277.515157987033
282.008173122033	2	55	CONTROL	0.969287688966688	5	n/a	1000	0	282.008173122033
285.075327323329	3	56	INCORRECTLY	1.2867940156716	21	SURE_INCORRECT	53	0	285.075327323329
292.021949459033	3	57	INCORRECTLY	1.8965660239669	10	MAYBE_INCORRECT	76	0	292.021949459033
296.067319058033	2	58	CONTROL	0.791835332966912	5	n/a	1000	0	296.067319058033
300.013275000935	3	59	INCORRECTLY	1.26261212506552	21	SURE_INCORRECT	41	0	300.013275000935
305.517411479738	2	60	CONTROL	1.01753103226201	10	n/a	1000	0	305.517411479738
310.027011987033	3	61	INCORRECTLY	1.50749209296691	21	SURE_INCORRECT	63	0	310.027011987033
318.018184158328	3	62	CORRECTLY	1.88493280567172	5	SURE_CORRECT	38	61	318.018184158328
325.014616057984	3	63	CORRECTLY	1.108451428016	5	SURE_CORRECT	24	41	325.014616057984
330.021495961329	3	64	CORRECTLY	1.17911784467151	5	SURE_CORRECT	21	37	330.021495961329
335.525800702033	3	65	INCORRECTLY	1.24945740196654	21	SURE_INCORRECT	67	0	335.525800702033
341.527496498329	3	66	CORRECTLY	1.22560710967127	5	SURE_CORRECT	34	57	341.527496498329
346.517823771328	3	67	INCORRECTLY	1.22514594567156	21	SURE_INCORRECT	60	0	346.517823771328
351.010725996033	2	68	CONTROL	1.12259610596675	21	n/a	1000	0	351.010725996033
355.022934350329	3	69	CORRECTLY	0.865941759671387	5	SURE_CORRECT	22	38	355.022934350329
362.516823909984	3	70	CORRECTLY	0.944107019015973	5	SURE_CORRECT	25	44	362.516823909984
367.009694159918	3	71	INCORRECTLY	1.16842343508188	21	SURE_INCORRECT	71	0	367.009694159918
371.071626216623	3	72	INCORRECTLY	1.48606835737655	21	SURE_INCORRECT	57	0	371.071626216623
375.514823801328	3	73	CORRECTLY	1.47245208267168	5	SURE_CORRECT	19	35	375.514823801328
381.019070726738	2	74	CONTROL	1.25029153426158	28	n/a	1000	0	381.019070726738
386.009486252623	3	75	INCORRECTLY	1.45046911637655	21	SURE_INCORRECT	74	0	386.009486252623
391.513703371033	2	76	CONTROL	1.15386897596682	10	n/a	1000	0	391.513703371033
395.509296478739	3	77	CORRECTLY	1.48623348926139	5	SURE_CORRECT	17	32	395.509296478739
401.013615593329	2	78	CONTROL	0.760629486671405	5	n/a	1000	0	401.013615593329
405.009203951739	3	79	INCORRECTLY	1.17983466226133	21	SURE_INCORRECT	77	0	405.009203951739
409.518774196033	2	80	CONTROL	0.760251390966914	10	n/a	1000	0	409.518774196033
415.520446921329	3	81	INCORRECTLY	1.28605797367163	21	SURE_INCORRECT	44	0	415.520446921329
421.522069186738	3	82	CORRECTLY	1.43903986126179	5	SURE_CORRECT	40	64	421.522069186738
426.015077717033	3	83	CORRECTLY	1.35521239696664	5	SURE_CORRECT	28	48	426.015077717033
430.076983565329	3	84	INCORRECTLY	1.74431154267131	10	MAYBE_INCORRECT	50	0	430.076983565329
437.023672197033	3	85	INCORRECTLY	1.76667902596682	21	SURE_INCORRECT	72	0	437.023672197033
443.522641890738	3	86	INCORRECTLY	1.09758103026206	21	SURE_INCORRECT	69	0	443.522641890738
447.568128844574	3	87	CORRECTLY	1.32038140742634	5	SURE_CORRECT	18	34	447.568128844574
452.508569525738	2	88	CONTROL	0.827864588261491	10	n/a	1000	0	452.508569525738
455.575794835033	2	89	CONTROL	0.782922444966971	28	n/a	1000	0	455.575794835033
462.025076361329	3	90	INCORRECTLY	1.27476288467142	21	SURE_INCORRECT	61	0	462.025076361329
466.070393038033	2	91	CONTROL	1.27363473896685	21	n/a	1000	0	466.070393038033
470.513651474984	3	92	INCORRECTLY	1.58953644701614	5	SURE_CORRECT	73	0	470.513651474984
474.575554509033	3	93	CORRECTLY	1.52167005396677	21	SURE_INCORRECT	29	52	474.575554509033
479.516145971033	3	94	CORRECTLY	1.28523307996647	5	SURE_CORRECT	20	36	479.516145971033
484.523104437033	2	95	CONTROL	0.943711323966454	10	n/a	1000	0	484.523104437033
489.015995484033	3	96	CORRECTLY	1.4478243499666	5	SURE_CORRECT	31	54	489.015995484033
493.077931272328	3	97	CORRECTLY	1.75414664767186	5	SURE_CORRECT	23	40	493.077931272328
498.018491223329	3	98	CORRECTLY	1.25103850667165	5	SURE_CORRECT	37	60	498.018491223329
502.511502320328	3	99	CORRECTLY	0.771957293671676	5	SURE_CORRECT	36	59	502.511502320328
506.573366493033	2	100	CONTROL	1.1327977659671	21	n/a	1000	0	506.573366493033
510.005416895935	3	101	INCORRECTLY	1.1916402480656	21	SURE_INCORRECT	54	0	510.005416895935
514.067182793739	3	102	CORRECTLY	0.911538150261549	5	SURE_CORRECT	39	63	514.067182793739
518.079401443033	3	103	CORRECTLY	1.73065045896647	10	MAYBE_INCORRECT	33	56	518.079401443033
522.058370057328	3	104	CORRECTLY	1.26085057867158	5	SURE_CORRECT	26	45	522.058370057328
