onset	duration	trial_number	trial_type	trial_type_coded	reaction_time	expected_response_coded	response	response_coded	accuracy	accuracy_scrambled	accuracy_task	rec_codes_during_enc	onset_probe	onset_noTriggerAdjust	onset_probe_noTriggerAdjust
0.0133933663128118	2	1	CONTROL	1	2.15204515540518	1	LEFT	5	1	1	0	0	0.0465663395953015	0.0133933663128118	0.0465663395953015
4.52290138867193	2	2	CONTROL	1	0.795925548328341	2	RIGHT	28	1	1	0	0	4.53945235167157	4.52290138867193	4.53945235167157
11.5193002763126	4	3	TASK	2	0.631593492046704	1	LEFT	5	1	0	1	16	12.5140474029531	11.5193002763126	12.5140474029531
19.527086835953	2	4	CONTROL	1	0.701188448022549	1	LEFT	5	1	1	0	0	19.5437194319775	19.527086835953	19.5437194319775
22.0636774003133	4	5	TASK	2	1.03108891996999	2	RIGHT	28	1	0	1	28	23.0087810900304	22.0636774003133	23.0087810900304
38.5103012316713	4	6	TASK	2	0.702155120328825	1	LEFT	5	1	0	1	1	39.5216468736717	38.5103012316713	39.5216468736717
49.5188318569535	2	7	CONTROL	1	0.796682613869962	2	RIGHT	28	1	1	0	0	49.5355261811301	49.5188318569535	49.5355261811301
56.5153375166719	2	8	CONTROL	1	1.12288573232854	2	RIGHT	28	1	1	0	0	56.5318742996715	56.5153375166719	56.5318742996715
66.0151742823127	4	9	TASK	2	0.769748682329009	2	RIGHT	28	1	0	1	33	67.0099742706716	66.0151742823127	67.0099742706716
70.5246815693126	2	10	CONTROL	1	n/a	2	n/a	n/a	0	0	0	0	70.5412925509536	70.5246815693126	70.5412925509536
76.0124551100298	4	11	TASK	2	0.735251485328263	2	RIGHT	28	1	0	1	17	77.0072024936717	76.0124551100298	77.0072024936717
81.5167214676712	4	12	TASK	2	0.626879964047475	2	RIGHT	28	1	0	1	11	82.5115678619532	81.5167214676712	82.5115678619532
92.5087538300304	4	13	TASK	2	0.970456940046461	1	LEFT	5	1	0	1	8	93.5200131039537	92.5087538300304	93.5200131039537
98.0130467246718	2	14	CONTROL	1	n/a	1	n/a	n/a	0	0	0	0	98.0296115946712	98.0130467246718	98.0296115946712
104.51207774803	4	15	TASK	2	0.0086656606872566	1	n/a	10	0	0	0	5	105.506855261313	104.51207774803	105.506855261313
109.021659550313	2	16	CONTROL	1	2.43156555687074	1	LEFT	5	1	1	0	0	109.03827556713	109.021659550313	109.03827556713
112.022441638672	2	17	CONTROL	1	0.885829637328243	2	RIGHT	28	1	1	0	0	112.039085203672	112.022441638672	112.039085203672
118.521543359313	4	18	TASK	2	2.41768402632806	2	LEFT	5	0	0	0	25	119.516216362672	118.521543359313	119.516216362672
125.020586583953	2	19	CONTROL	1	0.739711245687431	1	LEFT	5	1	1	0	0	125.037109326313	125.020586583953	125.037109326313
129.016185877695	4	20	TASK	2	0.589244835328827	1	LEFT	5	1	0	1	21	130.010907949671	129.016185877695	130.010907949671
135.017858785672	4	21	TASK	2	0.884987957916564	2	RIGHT	28	1	0	1	35	136.012503631084	135.017858785672	136.012503631084
151.016720934672	4	22	TASK	2	0.623091134458264	1	LEFT	5	1	0	1	4	152.011537329542	151.016720934672	152.011537329542
155.526300161313	4	23	TASK	2	1.40357002232849	2	RIGHT	28	1	0	1	34	156.521050044672	155.526300161313	156.521050044672
161.01403136403	2	24	CONTROL	1	0.681434366687427	2	RIGHT	28	1	1	0	0	161.030577054313	161.01403136403	161.030577054313
165.026189902313	2	25	CONTROL	1	1.69306717168729	1	LEFT	5	1	1	0	0	165.042722590313	165.026189902313	165.042722590313
174.50941951503	2	26	CONTROL	1	n/a	2	n/a	n/a	0	0	0	0	174.526068365618	174.50941951503	174.526068365618
179.516357484313	2	27	CONTROL	1	1.44889133474135	2	RIGHT	28	1	1	0	0	179.532990195259	179.516357484313	179.532990195259
182.052962354954	4	28	TASK	2	0.727254921328495	2	RIGHT	28	1	0	1	15	183.014612462672	182.052962354954	183.014612462672
189.016239603671	2	29	CONTROL	1	0.595023038687032	2	RIGHT	28	1	1	0	0	189.032839387313	189.016239603671	189.032839387313
193.011801278672	4	30	TASK	2	0.655859014870657	2	RIGHT	28	1	0	1	36	194.00669703413	193.011801278672	194.00669703413
202.01441272203	4	31	TASK	2	1.59645890187039	2	RIGHT	28	1	0	1	14	203.00916346713	202.01441272203	203.00916346713
209.50820071813	4	32	TASK	2	0.912535385328738	1	LEFT	5	1	0	1	77	210.519480293671	209.50820071813	210.519480293671
216.023739882313	2	33	CONTROL	1	n/a	2	n/a	n/a	0	0	0	0	216.040318127313	216.023739882313	216.040318127313
220.516740333672	4	34	TASK	2	0.558621008328373	1	LEFT	5	1	0	1	87	221.511514831672	220.516740333672	221.511514831672
226.021002614313	4	35	TASK	2	0.729930146687366	1	LEFT	5	1	0	1	73	227.015776769313	226.021002614313	227.015776769313
240.013853242954	4	36	TASK	2	0.683389235817231	1	LEFT	5	1	0	1	94	241.008649582183	240.013853242954	241.008649582183
254.006704832672	4	37	TASK	2	0.689181201328211	1	LEFT	5	1	0	1	64	255.018089013672	254.006704832672	255.018089013672
261.517140901671	4	38	TASK	2	0.655773362686887	2	RIGHT	28	1	0	1	69	262.511903718313	261.517140901671	262.511903718313
280.019489011313	2	39	CONTROL	1	0.667890332816569	1	LEFT	5	1	1	0	0	280.036059733184	280.019489011313	280.036059733184
283.020269862954	4	40	TASK	2	1.57263486832926	2	RIGHT	28	1	0	1	97	284.015076171671	283.020269862954	284.015076171671
292.022868571671	4	41	TASK	2	n/a	1	n/a	n/a	0	0	0	63	293.017609807031	292.022868571671	293.017609807031
297.510507196313	2	42	CONTROL	1	0.00887466268704884	1	RIGHT	28	0	0	0	0	297.527138821313	297.510507196313	297.527138821313
305.518299416313	2	43	CONTROL	1	0.707076751023124	1	LEFT	5	1	1	0	0	305.534914096977	305.518299416313	305.534914096977
316.510269975313	4	44	TASK	2	0.493758419870574	1	LEFT	5	1	0	1	70	317.50511925613	316.510269975313	317.50511925613
324.020696378671	4	45	TASK	2	0.529343820328904	1	LEFT	5	1	0	1	104	325.015403352671	324.020696378671	325.015403352671
331.017150959671	2	46	CONTROL	1	0.706190315871027	1	LEFT	5	1	1	0	0	331.03377945913	331.017150959671	331.03377945913
336.52151508313	4	47	TASK	2	0.787527839870563	2	RIGHT	28	1	0	1	45	337.51621647713	336.52151508313	337.51621647713
347.016046485672	4	48	TASK	2	n/a	2	n/a	n/a	0	0	0	83	348.010839282129	347.016046485672	348.010839282129
358.008050690672	2	49	CONTROL	1	0.672260980329156	1	LEFT	5	1	1	0	0	358.024631874671	358.008050690672	358.024631874671
363.014907448954	2	50	CONTROL	1	n/a	2	n/a	n/a	0	0	0	0	363.031566667313	363.014907448954	363.031566667313
370.508787285313	2	51	CONTROL	1	2.27860008674088	2	RIGHT	28	1	1	0	0	370.525399886259	370.508787285313	370.525399886259
376.52707723013	4	52	TASK	2	0.85171983102282	2	RIGHT	28	1	0	1	93	377.505295773977	376.52707723013	377.505295773977
383.506902751313	4	53	TASK	2	0.55973581797025	1	LEFT	5	1	0	1	46	384.51823081103	383.506902751313	384.51823081103
390.519843715313	4	54	TASK	2	n/a	2	n/a	n/a	0	0	0	96	391.514607286672	390.519843715313	391.514607286672
405.010121209313	4	55	TASK	2	0.612863969046884	2	RIGHT	28	1	0	1	49	406.021420417954	405.010121209313	406.021420417954
412.006530355671	4	56	TASK	2	3.31393974168714	2	RIGHT	28	1	0	1	103	413.017806713313	412.006530355671	413.017806713313
418.522130436313	4	57	TASK	2	0.457952188328818	2	RIGHT	28	1	0	1	66	419.516917944671	418.522130436313	419.516917944671
429.51417842903	4	58	TASK	2	n/a	2	n/a	n/a	0	0	0	48	430.508925773672	429.51417842903	430.508925773672
443.506953681954	4	59	TASK	2	0.400132489328826	2	RIGHT	28	1	0	1	99	444.518347533672	443.506953681954	444.518347533672
448.033126188671	4	60	TASK	2	0.652442546686871	1	LEFT	5	1	0	1	98	449.011277460313	448.033126188671	449.011277460313
453.023489961672	4	61	TASK	2	0.529945749329272	2	RIGHT	28	1	0	1	62	454.018194016671	453.023489961672	454.018194016671
459.522478232671	2	62	CONTROL	1	n/a	1	n/a	n/a	0	0	0	0	459.539086532672	459.522478232671	459.539086532672
465.010241199489	4	63	TASK	2	1.1493653355119	1	LEFT	5	1	0	1	102	466.021635913488	465.010241199489	466.021635913488
473.515313078313	4	64	TASK	2	0.544348881870974	2	RIGHT	28	1	0	1	82	474.510148352129	473.515313078313	474.510148352129
