onset	duration	trial_number	trial_type	trial_type_coded	reaction_time	expected_response_coded	response	response_coded	accuracy	accuracy_scrambled	accuracy_task	rec_codes_during_enc	onset_probe	onset_noTriggerAdjust	onset_probe_noTriggerAdjust
0.0132813748664375	2	1	CONTROL	1	1.11296850978397	1	LEFT	5	1	1	0	0	0.046472895216084	0.0132813748664375	0.046472895216084
4.52287861754166	2	2	CONTROL	1	0.667806727109564	2	RIGHT	28	1	1	0	0	4.53940279789049	4.52287861754166	4.53940279789049
11.519210166216	4	3	TASK	2	1.36022441245859	1	LEFT	5	1	0	1	16	12.5140261165416	11.519210166216	12.5140261165416
19.5270187392161	2	4	CONTROL	1	0.84354087218162	1	LEFT	5	1	1	0	0	19.5436145488184	19.5270187392161	19.5436145488184
22.0636844575415	4	5	TASK	2	3.16031678110949	2	RIGHT	28	1	0	1	28	23.0086145648906	22.0636844575415	23.0086145648906
38.5102223968665	4	6	TASK	2	0.791071114880197	1	LEFT	5	1	0	1	1	39.50497563512	38.5102223968665	39.50497563512
49.5187838662159	2	7	CONTROL	1	0.622735443458623	2	RIGHT	28	1	1	0	0	49.5353281105413	49.5187838662159	49.5353281105413
56.5151522758906	2	8	CONTROL	1	0.571984590602824	2	RIGHT	28	1	1	0	0	56.5318896853973	56.5151522758906	56.5318896853973
66.0151420755415	4	9	TASK	2	1.06094624827756	2	RIGHT	28	1	0	1	33	67.0099551337225	66.0151420755415	67.0099551337225
70.5246504615416	2	10	CONTROL	1	0.821515753458698	2	RIGHT	28	1	1	0	0	70.5412280385412	70.5246504615416	70.5412280385412
76.0123737272161	4	11	TASK	2	0.998156563277462	2	RIGHT	28	1	0	1	17	77.0072071647223	76.0123737272161	77.0072071647223
81.5166255415415	4	12	TASK	2	0.783896052783803	2	RIGHT	28	1	0	1	11	82.5113451092161	81.5166255415415	82.5113451092161
92.508652605216	4	13	TASK	2	1.40545455645861	1	LEFT	5	1	0	1	8	93.5200270085415	92.508652605216	93.5200270085415
98.0129541305414	2	14	CONTROL	1	0.762512929458808	1	LEFT	5	1	1	0	0	98.0295550855412	98.0129541305414	98.0295550855412
104.512034728541	4	15	TASK	2	0.751905195602376	1	LEFT	5	1	0	1	5	105.506810408398	104.512034728541	105.506810408398
109.021496049541	2	16	CONTROL	1	0.666393983784019	1	LEFT	5	1	1	0	0	109.038072092216	109.021496049541	109.038072092216
112.005754057866	2	17	CONTROL	1	0.9584662234588	2	RIGHT	28	1	1	0	0	112.022368789541	112.005754057866	112.022368789541
118.521367559891	4	18	TASK	2	0.622602430602456	2	RIGHT	28	1	0	1	25	119.516241006398	118.521367559891	119.516241006398
125.02042643289	2	19	CONTROL	1	0.823261636602638	1	LEFT	5	1	1	0	0	125.037122549397	125.02042643289	125.037122549397
129.016101565866	4	20	TASK	2	0.738016071783932	1	LEFT	5	1	0	1	21	130.010829741216	129.016101565866	130.010829741216
135.017759678867	4	21	TASK	2	0.552742239133295	2	RIGHT	28	1	0	1	35	136.012489369867	135.017759678867	136.012489369867
151.016633906891	4	22	TASK	2	0.803734610458832	1	LEFT	5	1	0	1	4	152.011407715541	151.016633906891	152.011407715541
155.526191359216	4	23	TASK	2	0.798132556458313	2	RIGHT	28	1	0	1	34	156.520965534542	155.526191359216	156.520965534542
161.013860443541	2	24	CONTROL	1	0.829203476784187	2	RIGHT	28	1	1	0	0	161.030503570216	161.013860443541	161.030503570216
165.026047483216	2	25	CONTROL	1	0.608448887458508	1	LEFT	5	1	1	0	0	165.042628762541	165.026047483216	165.042628762541
174.526024620542	2	26	CONTROL	1	0.72438070122962	2	RIGHT	28	1	1	0	0	174.542641110771	174.526024620542	174.542641110771
179.516258857891	2	27	CONTROL	1	0.755147107458924	2	RIGHT	28	1	1	0	0	179.532866724541	179.516258857891	179.532866724541
182.052972240866	4	28	TASK	2	0.783851627458716	2	RIGHT	28	1	0	1	15	183.014527821541	182.052972240866	183.014527821541
189.016235063867	2	29	CONTROL	1	0.803130542458348	2	RIGHT	28	1	1	0	0	189.032749979542	189.016235063867	189.032749979542
193.011849069722	4	30	TASK	2	0.801649934783654	2	RIGHT	28	1	0	1	36	194.006482779216	193.011849069722	194.006482779216
202.014282335541	4	31	TASK	2	1.36995022127758	2	RIGHT	28	1	0	1	14	203.009124321723	202.014282335541	203.009124321723
209.508105016216	4	32	TASK	2	1.0224627596026	1	LEFT	5	1	0	1	77	210.519438416397	209.508105016216	210.519438416397
216.023696485542	2	33	CONTROL	1	1.02695201787992	2	RIGHT	28	1	1	0	0	216.04031492512	216.023696485542	216.04031492512
220.516683880216	4	34	TASK	2	1.33699528945863	1	LEFT	5	1	0	1	87	221.511399163541	220.516683880216	221.511399163541
226.020999413216	4	35	TASK	2	0.736753476458489	1	LEFT	5	1	0	1	73	227.015671241541	226.020999413216	227.015671241541
240.013841859216	4	36	TASK	2	0.768646682602594	1	LEFT	5	1	0	1	94	241.008608492397	240.013841859216	241.008608492397
254.006603410216	4	37	TASK	2	0.53811063778403	1	LEFT	5	1	0	1	64	255.017999949216	254.006603410216	255.017999949216
261.516992919541	4	38	TASK	2	0.895255526458641	2	RIGHT	28	1	0	1	69	262.511776555541	261.516992919541	262.511776555541
280.019396352542	2	39	CONTROL	1	0.905536394602677	1	LEFT	5	1	1	0	0	280.036044593397	280.019396352542	280.036044593397
283.020243410541	4	40	TASK	2	0.829165663783897	2	RIGHT	28	1	0	1	97	284.014962050216	283.020243410541	284.014962050216
292.022700141216	4	41	TASK	2	0.722682976903798	1	LEFT	5	1	0	1	63	293.017563267096	292.022700141216	293.017563267096
297.52701540889	2	42	CONTROL	1	0.689827383784177	1	LEFT	5	1	1	0	0	297.543662791216	297.52701540889	297.543662791216
305.518204466216	2	43	CONTROL	1	0.545452426109478	1	LEFT	5	1	1	0	0	305.534735002891	305.518204466216	305.534735002891
316.526791929216	4	44	TASK	2	0.570599671109449	1	LEFT	5	1	0	1	70	317.521539085891	316.526791929216	317.521539085891
324.020639192541	4	45	TASK	2	0.977919450133413	1	LEFT	5	1	0	1	104	325.015374361867	324.020639192541	325.015374361867
331.017011628541	2	46	CONTROL	1	0.74406135145864	1	LEFT	5	1	1	0	0	331.033658295541	331.017011628541	331.033658295541
336.52128296089	4	47	TASK	2	0.908554216458469	2	RIGHT	28	1	0	1	45	337.516114107541	336.52128296089	337.516114107541
347.015960773216	4	48	TASK	2	0.670513277458667	2	RIGHT	28	1	0	1	83	348.010668872541	347.015960773216	348.010668872541
358.024528145541	2	49	CONTROL	1	0.654804229855927	1	LEFT	5	1	1	0	0	358.041210918144	358.024528145541	358.041210918144
363.014922986541	2	50	CONTROL	1	0.708598222554429	2	RIGHT	28	1	1	0	0	363.031470996445	363.014922986541	363.031470996445
370.508666889216	2	51	CONTROL	1	0.547075951879833	2	RIGHT	28	1	1	0	0	370.52531580412	370.508666889216	370.52531580412
376.526904205542	4	52	TASK	2	0.598911575602415	2	RIGHT	28	1	0	1	93	377.505203924397	376.526904205542	377.505203924397
383.506812565192	4	53	TASK	2	0.690211386277497	1	LEFT	5	1	0	1	46	384.518222829723	383.506812565192	384.518222829723
390.519741068216	4	54	TASK	2	0.976524228855851	2	RIGHT	28	1	0	1	96	391.514613264144	390.519741068216	391.514613264144
405.026548218216	4	55	TASK	2	0.917446538784134	2	RIGHT	28	1	0	1	49	406.021357438216	405.026548218216	406.021357438216
412.006441713216	4	56	TASK	2	0.864046086277085	2	RIGHT	28	1	0	1	103	413.017870389723	412.006441713216	413.017870389723
418.522047625216	4	57	TASK	2	0.97124865053047	2	RIGHT	28	1	0	1	66	419.51683899947	418.522047625216	419.51683899947
429.514075253541	4	58	TASK	2	0.677741935602626	2	RIGHT	28	1	0	1	48	430.508919024398	429.514075253541	430.508919024398
443.506897958541	4	59	TASK	2	0.69273051845812	2	RIGHT	28	1	0	1	99	444.518271631542	443.506897958541	444.518271631542
448.03301430089	4	60	TASK	2	0.812217799783866	1	LEFT	5	1	0	1	98	449.011143128216	448.03301430089	449.011143128216
453.023310354216	4	61	TASK	2	0.595966563783804	2	RIGHT	28	1	0	1	62	454.018117048216	453.023310354216	454.018117048216
459.522367233891	2	62	CONTROL	1	0.899955425458757	1	LEFT	5	1	1	0	0	459.539025796541	459.522367233891	459.539025796541
465.010152120542	4	63	TASK	2	0.609270214952176	1	LEFT	5	1	0	1	102	466.005007620048	465.010152120542	466.005007620048
473.515202431542	4	64	TASK	2	0.615165868109671	2	RIGHT	28	1	0	1	82	474.51000771489	473.515202431542	474.51000771489
