onset	duration	trial_number	trial_type	trial_type_coded	reaction_time	expected_response_coded	response	response_coded	accuracy	accuracy_scrambled	accuracy_task	rec_codes_during_enc	onset_probe	onset_noTriggerAdjust	onset_probe_noTriggerAdjust
0.0133534297078768	2	1	CONTROL	1	1.3483322032921	1	LEFT	5	1	1	0	0	0.0464956067080493	0.0133534297078768	0.0464956067080493
4.52292156538897	2	2	CONTROL	1	0.69193881529236	2	RIGHT	28	1	1	0	0	4.53953202870798	4.52292156538897	4.53953202870798
11.5193767280266	4	3	TASK	2	1.06058407523233	1	LEFT	5	1	0	1	16	12.5141993857678	11.5193767280266	12.5141993857678
19.5104978413888	2	4	CONTROL	1	0.603793468292224	1	LEFT	5	1	1	0	0	19.5270485397077	19.5104978413888	19.5270485397077
22.0471420307076	4	5	TASK	2	0.853161244611329	2	RIGHT	28	1	0	1	28	23.008744647389	22.0471420307076	23.008744647389
38.5268189313888	4	6	TASK	2	0.54176473210282	1	LEFT	5	1	0	1	1	39.5051037638973	38.5268189313888	39.5051037638973
49.5188546297077	2	7	CONTROL	1	0.556038654611257	2	RIGHT	28	1	1	0	0	49.5354749863891	49.5188546297077	49.5354749863891
56.5153227240266	2	8	CONTROL	1	0.613598484610975	2	RIGHT	28	1	1	0	0	56.5317991243892	56.5153227240266	56.5317991243892
66.0152261397675	4	9	TASK	2	0.839235680292404	2	RIGHT	28	1	0	1	33	67.009916220708	66.0152261397675	67.009916220708
70.5246534413891	2	10	CONTROL	1	0.674394613611184	2	RIGHT	28	1	1	0	0	70.541266343389	70.5246534413891	70.541266343389
76.0123567840701	4	11	TASK	2	0.767782763929972	2	RIGHT	28	1	0	1	17	77.0071212410703	76.0123567840701	77.0071212410703
81.5166966020702	4	12	TASK	2	0.971793044611331	2	RIGHT	28	1	0	1	11	82.5115002273888	81.5166966020702	82.5115002273888
92.5086810637076	4	13	TASK	2	1.10366273892987	1	RIGHT	28	0	0	0	8	93.5200125830702	92.5086810637076	93.5200125830702
98.0130189057077	2	14	CONTROL	1	0.509228764292402	1	LEFT	5	1	1	0	0	98.0296082567079	98.0130189057077	98.0296082567079
104.512048715389	4	15	TASK	2	0.614900248551294	1	LEFT	5	1	0	1	5	105.506874694449	104.512048715389	105.506874694449
109.021558751751	2	16	CONTROL	1	n/a	1	n/a	n/a	0	0	0	0	109.038286520898	109.021558751751	109.038286520898
112.022496898449	2	17	CONTROL	1	0.612945221232621	2	RIGHT	28	1	1	0	0	112.039135897768	112.022496898449	112.039135897768
118.521551189449	4	18	TASK	2	0.448578882551374	2	RIGHT	28	1	0	1	25	119.516280465449	118.521551189449	119.516280465449
125.020602364449	2	19	CONTROL	1	0.427639876551439	1	LEFT	5	1	1	0	0	125.037228867449	125.020602364449	125.037228867449
129.016179874449	4	20	TASK	2	0.432914285292554	1	LEFT	5	1	0	1	21	130.010908001708	129.016179874449	130.010908001708
135.017800215389	4	21	TASK	2	0.529289102611074	2	RIGHT	28	1	0	1	35	136.012578049389	135.017800215389	136.012578049389
151.016665001708	4	22	TASK	2	n/a	1	n/a	n/a	0	0	0	4	152.011495892854	151.016665001708	152.011495892854
155.526243966389	4	23	TASK	2	n/a	2	n/a	n/a	0	0	0	34	156.504562177768	155.526243966389	156.504562177768
161.014019102708	2	24	CONTROL	1	0.560457939930075	2	RIGHT	28	1	1	0	0	161.03051080807	161.014019102708	161.03051080807
165.009577135389	2	25	CONTROL	1	0.444692036232482	1	LEFT	5	1	1	0	0	165.026244211768	165.009577135389	165.026244211768
174.526046496708	2	26	CONTROL	1	0.539611700551177	2	RIGHT	28	1	1	0	0	174.542662273449	174.526046496708	174.542662273449
179.516378914389	2	27	CONTROL	1	n/a	2	n/a	n/a	0	0	0	0	179.532951742708	179.516378914389	179.532951742708
182.052967892389	4	28	TASK	2	0.56843137629221	2	RIGHT	28	1	0	1	15	183.014532284708	182.052967892389	183.014532284708
189.016210375708	2	29	CONTROL	1	n/a	2	n/a	n/a	0	0	0	0	189.03279811007	189.016210375708	189.03279811007
193.011876653708	4	30	TASK	2	0.575820558232408	2	RIGHT	28	1	0	1	36	194.006647080768	193.011876653708	194.006647080768
202.014344925708	4	31	TASK	2	0.682727983611585	2	RIGHT	28	1	0	1	14	203.009073278389	202.014344925708	203.009073278389
209.508172638027	4	32	TASK	2	0.5594311926111	1	LEFT	5	1	0	1	77	210.519511050389	209.508172638027	210.519511050389
216.00711758807	2	33	CONTROL	1	0.490200809611451	2	RIGHT	28	1	1	0	0	216.023709900389	216.00711758807	216.023709900389
220.516720126389	4	34	TASK	2	0.533730955292413	1	LEFT	5	1	0	1	87	221.511524198708	220.516720126389	221.511524198708
226.021044101708	4	35	TASK	2	n/a	1	n/a	n/a	0	0	0	73	227.01571131107	226.021044101708	227.01571131107
240.013874676708	4	36	TASK	2	0.562280665249091	1	LEFT	5	1	0	1	94	241.008584288751	240.013874676708	241.008584288751
254.006686428027	4	37	TASK	2	0.875755348611619	1	LEFT	5	1	0	1	64	255.018033204389	254.006686428027	255.018033204389
261.517080396027	4	38	TASK	2	n/a	2	n/a	n/a	0	0	0	69	262.511904390449	261.517080396027	262.511904390449
280.019486932708	2	39	CONTROL	1	1.56594742655125	1	LEFT	5	1	1	0	0	280.036106292449	280.019486932708	280.036106292449
283.020264459708	4	40	TASK	2	0.622285015610942	2	RIGHT	28	1	0	1	97	284.015075374389	283.020264459708	284.015075374389
292.02277090507	4	41	TASK	2	0.626104702232169	1	LEFT	5	1	0	1	63	293.017669007768	292.02277090507	293.017669007768
297.527084157389	2	42	CONTROL	1	n/a	1	n/a	n/a	0	0	0	0	297.54364704607	297.527084157389	297.54364704607
305.51822264907	2	43	CONTROL	1	1.05547306655171	1	LEFT	5	1	1	0	0	305.534933791449	305.51822264907	305.534933791449
316.510264526665	4	44	TASK	2	0.696289728292413	1	LEFT	5	1	0	1	70	317.521634503708	316.510264526665	317.521634503708
324.02064453907	4	45	TASK	2	0.00872446661151116	1	LEFT	5	1	0	1	104	325.015410216389	324.02064453907	325.015410216389
331.017128264389	2	46	CONTROL	1	n/a	1	n/a	n/a	0	0	0	0	331.033605323751	331.017128264389	331.033605323751
336.521362690389	4	47	TASK	2	n/a	2	n/a	n/a	0	0	0	45	337.516160401389	336.521362690389	337.516160401389
347.01595649707	4	48	TASK	2	n/a	2	n/a	n/a	0	0	0	83	348.010802530578	347.01595649707	348.010802530578
358.024598004389	2	49	CONTROL	1	0.530399489551201	1	LEFT	5	1	1	0	0	358.041223906449	358.024598004389	358.041223906449
363.014898048708	2	50	CONTROL	1	0.481672081292345	2	RIGHT	28	1	1	0	0	363.031507102708	363.014898048708	363.031507102708
370.525362362389	2	51	CONTROL	1	0.587223090464704	2	RIGHT	28	1	1	0	0	370.542008419535	370.525362362389	370.542008419535
376.510460400389	4	52	TASK	2	0.53683683697318	2	RIGHT	28	1	0	1	93	377.505209855027	376.510460400389	377.505209855027
383.52337096507	4	53	TASK	2	n/a	1	n/a	n/a	0	0	0	46	384.518223455027	383.52337096507	384.518223455027
390.519804356389	4	54	TASK	2	n/a	2	n/a	n/a	0	0	0	96	391.514598102389	390.519804356389	391.514598102389
405.010050403389	4	55	TASK	2	0.815690277146132	2	RIGHT	28	1	0	1	49	406.004910557854	405.010050403389	406.004910557854
412.023101454389	4	56	TASK	2	n/a	2	n/a	n/a	0	0	0	103	413.017848831389	412.023101454389	413.017848831389
418.505547639854	4	57	TASK	2	n/a	2	n/a	n/a	0	0	0	66	419.516908355449	418.505547639854	419.516908355449
429.514073726389	4	58	TASK	2	0.615252579551452	2	RIGHT	28	1	0	1	48	430.508930828449	429.514073726389	430.508930828449
443.52350617107	4	59	TASK	2	n/a	2	n/a	n/a	0	0	0	99	444.518279040708	443.52350617107	444.518279040708
448.033045771708	4	60	TASK	2	n/a	1	n/a	n/a	0	0	0	98	449.011301608708	448.033045771708	449.011301608708
453.023445122389	4	61	TASK	2	n/a	2	n/a	n/a	0	0	0	62	454.018189597708	453.023445122389	454.018189597708
459.505935906708	2	62	CONTROL	1	n/a	1	n/a	n/a	0	0	0	0	459.522501060708	459.505935906708	459.522501060708
465.010318151087	4	63	TASK	2	n/a	1	n/a	n/a	0	0	0	102	466.004998277768	465.010318151087	466.004998277768
473.51525121207	4	64	TASK	2	0.626845338550993	2	RIGHT	28	1	0	1	82	474.510172351449	473.51525121207	474.510172351449
