onset	duration	trial_number	trial_type	reaction_time	response_coded	response_str	pairno_rec	enc_codes_during_rec	onset_noTriggerAdjust
0.0787825167803931	3	1	CORRECTLY	2.19273333021965	5	SURE_CORRECT	3	6	0.0787825167803931
4.52202088978038	3	2	INCORRECTLY	2.13657404021978	21	SURE_INCORRECT	55	0	4.52202088978038
13.0105036967634	2	3	CONTROL	1.43211770423659	5	n/a	1000	0	13.0105036967634
16.0777643817892	3	4	CORRECTLY	1.94049876721101	5	SURE_CORRECT	12	0	16.0777643817892
21.0183121357636	3	5	CORRECTLY	1.3738718602367	5	SURE_CORRECT	8	15	21.0183121357636
25.0636587367717	2	6	CONTROL	1.42730911922854	28	n/a	1000	0	25.0636587367717
29.0095106037802	3	7	INCORRECTLY	2.44182697122005	10	MAYBE_INCORRECT	59	0	29.0095106037802
36.0059771518986	3	8	CORRECTLY	1.50081391510139	5	SURE_CORRECT	7	13	36.0059771518986
40.5154137777718	3	9	INCORRECTLY	1.64265064322854	21	SURE_INCORRECT	68	0	40.5154137777718
47.0144540407719	3	10	INCORRECTLY	2.26558546922843	10	MAYBE_INCORRECT	64	0	47.0144540407719
51.0764011037718	3	11	CORRECTLY	1.9254092612282	5	SURE_CORRECT	6	12	51.0764011037718
56.01698448978	2	12	CONTROL	0.911014030220031	5	n/a	1000	0	56.01698448978
61.5212942927801	3	13	INCORRECTLY	1.56803409021995	21	SURE_INCORRECT	78	0	61.5212942927801
65.5666303527719	3	14	CORRECTLY	1.6298037642282	5	SURE_CORRECT	16	31	65.5666303527719
69.5788382887804	3	15	CORRECTLY	1.48666048621999	5	SURE_CORRECT	14	0	69.5788382887804
75.0168052997801	3	16	CORRECTLY	1.85288845622017	5	SURE_CORRECT	1	3	75.0168052997801
79.0621367007889	3	17	CORRECTLY	1.65597393721146	5	SURE_CORRECT	5	11	79.0621367007889
83.5218564417719	3	18	INCORRECTLY	1.70958199722827	21	SURE_INCORRECT	51	0	83.5218564417719
90.0209622047719	3	19	INCORRECTLY	2.09787237522823	10	MAYBE_INCORRECT	47	0	90.0209622047719
94.0662942347717	3	20	INCORRECTLY	1.74549665622862	21	SURE_INCORRECT	66	0	94.0662942347717
99.0234914217717	3	21	CORRECTLY	1.99251235122847	5	SURE_CORRECT	10	20	99.0234914217717
103.06877159078	3	22	INCORRECTLY	2.23763728921995	21	SURE_INCORRECT	48	0	103.06877159078
107.064387416772	3	23	INCORRECTLY	2.32028535822838	21	SURE_INCORRECT	52	0	107.064387416772
115.02240057278	3	24	INCORRECTLY	1.75590721722028	21	SURE_INCORRECT	45	0	115.02240057278
119.515385444772	3	25	CORRECTLY	1.68776551422843	5	SURE_CORRECT	9	18	119.515385444772
125.517007470763	3	26	INCORRECTLY	1.94297092623674	21	SURE_INCORRECT	42	0	125.517007470763
131.021288189772	3	27	INCORRECTLY	2.15770179522815	10	MAYBE_INCORRECT	80	0	131.021288189772
137.006461492797	3	28	CORRECTLY	1.62784583120265	5	SURE_CORRECT	2	5	137.006461492797
142.013326465772	2	29	CONTROL	1.36754304422811	10	n/a	1000	0	142.013326465772
145.06391264978	3	30	INCORRECTLY	2.26300202021957	10	MAYBE_INCORRECT	56	0	145.06391264978
150.51842016478	3	31	INCORRECTLY	1.75387480921972	21	SURE_INCORRECT	43	0	150.51842016478
155.011401989772	3	32	INCORRECTLY	2.18970444322804	10	MAYBE_INCORRECT	58	0	155.011401989772
159.52094797878	3	33	CORRECTLY	2.03595722821956	5	SURE_CORRECT	4	9	159.52094797878
167.014724061772	3	34	CORRECTLY	1.13291862322831	5	SURE_CORRECT	13	0	167.014724061772
173.513837230932	3	35	CORRECTLY	1.37684347506774	5	SURE_CORRECT	11	21	173.513837230932
178.52072740778	3	36	CORRECTLY	1.68479247122013	5	SURE_CORRECT	15	30	178.52072740778
182.56604413078	3	37	INCORRECTLY	1.36214060122029	21	SURE_INCORRECT	46	0	182.56604413078
188.51798240078	2	38	CONTROL	1.1806991102203	5	n/a	1000	0	188.51798240078
193.524858204772	2	39	CONTROL	0.830744534227961	28	n/a	1000	0	193.524858204772
198.01788124078	3	40	INCORRECTLY	2.28308936921985	10	MAYBE_INCORRECT	62	0	198.01788124078
203.008286189865	2	41	CONTROL	1.04250866613529	5	n/a	1000	0	203.008286189865
207.517692440764	2	42	CONTROL	1.31047044423622	21	n/a	1000	0	207.517692440764
211.015913076772	2	43	CONTROL	0.995971299228131	28	n/a	1000	0	211.015913076772
218.509708379764	3	44	INCORRECTLY	2.37951431623651	21	SURE_INCORRECT	49	0	218.509708379764
224.01408316078	3	45	CORRECTLY	1.75622355322002	5	SURE_CORRECT	27	47	224.01408316078
229.518384897772	3	46	CORRECTLY	1.30838317722828	5	SURE_CORRECT	30	53	229.518384897772
235.006132211899	3	47	INCORRECTLY	1.55318620810158	21	SURE_INCORRECT	75	0	235.006132211899
244.522508651763	3	48	CORRECTLY	1.45013427123649	5	SURE_CORRECT	35	58	244.522508651763
252.01628477978	3	49	CORRECTLY	2.30590420921999	10	MAYBE_INCORRECT	32	55	252.01628477978
256.078252851772	2	50	CONTROL	1.69501563222821	21	n/a	1000	0	256.078252851772
259.062514026933	3	51	INCORRECTLY	2.37375727606741	21	SURE_INCORRECT	70	0	259.062514026933
267.020458235772	2	52	CONTROL	1.22833538722807	21	n/a	1000	0	267.020458235772
272.524781012772	3	53	INCORRECTLY	1.51095918122792	21	SURE_INCORRECT	79	0	272.524781012772
277.51508721578	3	54	INCORRECTLY	1.75564331321993	21	SURE_INCORRECT	65	0	277.51508721578
282.00811102278	2	55	CONTROL	1.16654294422005	5	n/a	1000	0	282.00811102278
285.075270650772	3	56	INCORRECTLY	1.88423208422819	21	SURE_INCORRECT	53	0	285.075270650772
292.02195894478	3	57	INCORRECTLY	2.36342377521987	10	MAYBE_INCORRECT	76	0	292.02195894478
296.067240377789	2	58	CONTROL	0.992704180211149	5	n/a	1000	0	296.067240377789
300.029758922933	3	59	INCORRECTLY	1.82531983706758	21	SURE_INCORRECT	41	0	300.029758922933
305.517337736772	2	60	CONTROL	1.21596785322845	10	n/a	1000	0	305.517337736772
310.010296890772	3	61	INCORRECTLY	2.32479141222848	10	MAYBE_INCORRECT	63	0	310.010296890772
318.018164124932	3	62	CORRECTLY	1.63636468206778	5	SURE_CORRECT	38	61	318.018164124932
325.01456414278	3	63	CORRECTLY	2.30632412021987	10	MAYBE_INCORRECT	24	41	325.01456414278
330.021540375933	3	64	CORRECTLY	2.65764417106766	5	SURE_CORRECT	21	37	330.021540375933
335.525686302763	3	65	INCORRECTLY	1.72103834623658	21	SURE_INCORRECT	67	0	335.525686302763
341.510934372941	3	66	CORRECTLY	2.56124687305919	10	MAYBE_INCORRECT	34	57	341.510934372941
346.51777813378	3	67	INCORRECTLY	1.60106909121987	21	SURE_INCORRECT	60	0	346.51777813378
351.010758568797	2	68	CONTROL	1.15991215420263	21	n/a	1000	0	351.010758568797
355.02290845978	3	69	CORRECTLY	1.3230356392196	5	SURE_CORRECT	22	38	355.02290845978
362.51666378278	3	70	CORRECTLY	2.31890862922	10	MAYBE_INCORRECT	25	44	362.51666378278
367.009614634772	3	71	INCORRECTLY	1.81441438722823	21	SURE_INCORRECT	71	0	367.009614634772
371.07158527978	3	72	INCORRECTLY	2.52169841921977	10	MAYBE_INCORRECT	57	0	371.07158527978
375.514717925764	3	73	CORRECTLY	1.96575436723651	5	SURE_CORRECT	19	35	375.514717925764
381.01907194478	2	74	CONTROL	1.35594267521992	28	n/a	1000	0	381.01907194478
386.009466229857	3	75	INCORRECTLY	1.47275154314366	21	SURE_INCORRECT	74	0	386.009466229857
391.51368556178	2	76	CONTROL	1.1322906742198	10	n/a	1000	0	391.51368556178
395.509304026789	3	77	CORRECTLY	1.56793857321145	5	SURE_CORRECT	17	32	395.509304026789
401.01356834478	2	78	CONTROL	0.971050229220054	5	n/a	1000	0	401.01356834478
405.025782518772	3	79	INCORRECTLY	1.24114887522819	21	SURE_INCORRECT	77	0	405.025782518772
409.518727268764	2	80	CONTROL	1.18016637323672	10	n/a	1000	0	409.518727268764
415.520340967772	3	81	INCORRECTLY	2.23996384222801	21	SURE_INCORRECT	44	0	415.520340967772
421.52209889378	3	82	CORRECTLY	2.07377075821978	5	SURE_CORRECT	40	64	421.52209889378
426.014967417772	3	83	CORRECTLY	1.57729140622814	5	SURE_CORRECT	28	48	426.014967417772
430.06029514778	3	84	INCORRECTLY	1.21482626621992	21	SURE_INCORRECT	50	0	430.06029514778
437.007106110941	3	85	INCORRECTLY	1.45979198005898	21	SURE_INCORRECT	72	0	437.007106110941
443.52267075678	3	86	INCORRECTLY	2.16627156121967	28	MAYBE_CORRECT	69	0	443.52267075678
447.567938487764	3	87	CORRECTLY	1.39422736023653	5	SURE_CORRECT	18	34	447.567938487764
452.50855042578	2	88	CONTROL	1.01768633921984	10	n/a	1000	0	452.50855042578
455.57570136878	2	89	CONTROL	0.984513815219998	28	n/a	1000	0	455.57570136878
462.00842756078	3	90	INCORRECTLY	1.12298918821989	21	SURE_INCORRECT	61	0	462.00842756078
466.070408703789	2	91	CONTROL	1.3457153762115	21	n/a	1000	0	466.070408703789
470.513645874941	3	92	INCORRECTLY	2.57419741505964	21	SURE_INCORRECT	73	0	470.513645874941
474.57544303778	3	93	CORRECTLY	1.06365846322024	5	SURE_CORRECT	29	52	474.57544303778
479.51608081478	3	94	CORRECTLY	2.1539331622198	5	SURE_CORRECT	20	36	479.51608081478
484.523030134772	2	95	CONTROL	0.910801931228434	10	n/a	1000	0	484.523030134772
489.01596775078	3	96	CORRECTLY	2.26931919121989	10	MAYBE_INCORRECT	31	54	489.01596775078
493.077912376865	3	97	CORRECTLY	2.26728854513522	28	MAYBE_CORRECT	23	40	493.077912376865
498.018495260772	3	98	CORRECTLY	0.876344127228094	5	SURE_CORRECT	37	60	498.018495260772
502.51146159978	3	99	CORRECTLY	1.95345823021989	28	MAYBE_CORRECT	36	59	502.51146159978
506.573383896772	2	100	CONTROL	1.07584030422868	21	n/a	1000	0	506.573383896772
510.02181010478	3	101	INCORRECTLY	1.61357823621984	21	SURE_INCORRECT	54	0	510.02181010478
514.06716830278	3	102	CORRECTLY	1.12125452621967	5	SURE_CORRECT	39	63	514.06716830278
518.062730977764	3	103	CORRECTLY	2.13138923423639	28	MAYBE_CORRECT	33	56	518.062730977764
522.07492769578	3	104	CORRECTLY	1.90774292721972	5	SURE_CORRECT	26	45	522.07492769578
