onset	duration	trial_number	trial_type	reaction_time	response_coded	response_str	pairno_rec	enc_codes_during_rec	onset_noTriggerAdjust
0.0973296509998818	3	1	CORRECTLY	2.69016212100018	5	SURE_CORRECT	3	6	0.0973296509998818
4.51541466399999	3	2	INCORRECTLY	2.23490861000005	21	SURE_INCORRECT	55	0	4.51541466399999
13.0205350419999	2	3	CONTROL	0.738147017000074	5	n/a	1000	0	13.0205350419999
16.0816341669999	3	4	CORRECTLY	1.93217127299999	5	SURE_CORRECT	12	0	16.0816341669999
21.012640504	3	5	CORRECTLY	1.49401699500004	5	SURE_CORRECT	8	15	21.012640504
25.066609234	2	6	CONTROL	1.33268311899997	28	n/a	1000	0	25.066609234
29.021351503	3	7	INCORRECTLY	1.77958681799987	5	SURE_CORRECT	59	0	29.021351503
36.0041390260001	3	8	CORRECTLY	1.79267562199993	5	SURE_CORRECT	7	13	36.0041390260001
40.504926391	3	9	INCORRECTLY	1.73228179800003	5	SURE_CORRECT	68	0	40.504926391
47.0077983179999	3	10	INCORRECTLY	2.39303107299997	21	SURE_INCORRECT	64	0	47.0077983179999
51.0783640760001	3	11	CORRECTLY	1.84233600999983	5	SURE_CORRECT	6	12	51.0783640760001
56.009362262	2	12	CONTROL	0.981144990000075	5	n/a	1000	0	56.009362262
61.5194224209999	3	13	INCORRECTLY	1.90402802900007	21	SURE_INCORRECT	78	0	61.5194224209999
65.5734790619999	3	14	CORRECTLY	1.49484161100008	5	SURE_CORRECT	16	31	65.5734790619999
69.577763453	3	15	CORRECTLY	1.46552917500003	5	SURE_CORRECT	14	0	69.577763453
75.021734356	3	16	CORRECTLY	1.31911457000001	5	SURE_CORRECT	1	3	75.021734356
79.0756473599999	3	17	CORRECTLY	2.97211520900009	5	SURE_CORRECT	5	11	79.0756473599999
83.5102266389999	3	18	INCORRECTLY	1.37068978499997	21	SURE_INCORRECT	51	0	83.5102266389999
90.0131427399999	3	19	INCORRECTLY	2.20129197600022	10	MAYBE_INCORRECT	47	0	90.0131427399999
94.0671470339998	3	20	INCORRECTLY	1.47928392500035	10	MAYBE_INCORRECT	66	0	94.0671470339998
99.014675635	3	21	CORRECTLY	1.64196385500009	28	MAYBE_CORRECT	10	20	99.014675635
103.068621421	3	22	INCORRECTLY	1.23353592500007	21	SURE_INCORRECT	48	0	103.068621421
107.07300928	3	23	INCORRECTLY	1.88323446699997	10	MAYBE_INCORRECT	52	0	107.07300928
115.015533052	3	24	INCORRECTLY	2.44850004099999	21	SURE_INCORRECT	45	0	115.015533052
119.516216401	3	25	CORRECTLY	1.40372507200027	5	SURE_CORRECT	9	18	119.516216401
125.506246566	3	26	INCORRECTLY	2.1446205100001	21	SURE_INCORRECT	42	0	125.506246566
131.016368221	3	27	INCORRECTLY	2.5906608260002	10	MAYBE_INCORRECT	80	0	131.016368221
137.006392634	3	28	CORRECTLY	1.37030762699987	5	SURE_CORRECT	2	5	137.006392634
142.020000771	2	29	CONTROL	1.28322728600006	10	n/a	1000	0	142.020000771
145.06463235	3	30	INCORRECTLY	1.42906218799999	21	SURE_INCORRECT	56	0	145.06463235
150.508598944	3	31	INCORRECTLY	1.72794939699997	21	SURE_INCORRECT	43	0	150.508598944
155.009302173	3	32	INCORRECTLY	1.51851103299987	21	SURE_INCORRECT	58	0	155.009302173
159.510073485	3	33	CORRECTLY	2.18137147900006	5	SURE_CORRECT	4	9	159.510073485
167.022378626	3	34	CORRECTLY	1.44288215100005	5	SURE_CORRECT	13	0	167.022378626
173.508803351	3	35	CORRECTLY	1.33425192100003	5	SURE_CORRECT	11	21	173.508803351
178.522470724	3	36	CORRECTLY	1.23357364699996	5	SURE_CORRECT	15	30	178.522470724
182.57645108	3	37	INCORRECTLY	1.28002054199987	21	SURE_INCORRECT	46	0	182.57645108
188.516807676	2	38	CONTROL	1.0230973089997	28	n/a	1000	0	188.516807676
193.513926015	2	39	CONTROL	0.76094068600014	28	n/a	1000	0	193.513926015
198.01468751	3	40	INCORRECTLY	2.07073158200001	21	SURE_INCORRECT	62	0	198.01468751
203.011859206	2	41	CONTROL	0.761775707000197	28	n/a	1000	0	203.011859206
207.512573458	2	42	CONTROL	0.79385455900001	21	n/a	1000	0	207.512573458
211.020528284	2	43	CONTROL	0.904256505999911	28	n/a	1000	0	211.020528284
218.516303421	3	44	INCORRECTLY	1.73265507399992	10	MAYBE_INCORRECT	49	0	218.516303421
224.009840999	3	45	CORRECTLY	1.32160414700002	5	SURE_CORRECT	27	47	224.009840999
229.519981117	3	46	CORRECTLY	1.18835752799987	10	MAYBE_INCORRECT	30	53	229.519981117
235.01346384	3	47	INCORRECTLY	2.235974704	21	SURE_INCORRECT	75	0	235.01346384
244.51141197	3	48	CORRECTLY	2.18262909899977	10	MAYBE_INCORRECT	35	58	244.51141197
252.023666587	3	49	CORRECTLY	1.98878225899989	10	MAYBE_INCORRECT	32	55	252.023666587
256.07766111	2	50	CONTROL	0.958290852000118	21	n/a	1000	0	256.07766111
259.072615563	3	51	INCORRECTLY	1.63404991800007	21	SURE_INCORRECT	70	0	259.072615563
267.015226931	2	52	CONTROL	1.03350027899978	21	n/a	1000	0	267.015226931
272.525236446	3	53	INCORRECTLY	1.88013424400015	21	SURE_INCORRECT	79	0	272.525236446
277.522476505	3	54	INCORRECTLY	2.61692770400032	21	SURE_INCORRECT	65	0	277.522476505
282.006613425	2	55	CONTROL	1.38881143099979	5	n/a	1000	0	282.006613425
285.084390777	3	56	INCORRECTLY	1.59471189299984	21	SURE_INCORRECT	53	0	285.084390777
292.01748809	3	57	INCORRECTLY	1.38067444600028	21	SURE_INCORRECT	76	0	292.01748809
296.071481863	2	58	CONTROL	1.06240845699995	5	n/a	1000	0	296.071481863
300.009690055	3	59	INCORRECTLY	1.12167162299966	21	SURE_INCORRECT	41	0	300.009690055
305.503199088	2	60	CONTROL	1.00570767499994	10	n/a	1000	0	305.503199088
310.020571629	3	61	INCORRECTLY	1.27248017799957	21	SURE_INCORRECT	63	0	310.020571629
318.012713797	3	62	CORRECTLY	1.52504087100033	5	SURE_CORRECT	38	61	318.012713797
325.012015659	3	63	CORRECTLY	1.62874995199991	5	SURE_CORRECT	24	41	325.012015659
330.009127193	3	64	CORRECTLY	1.230294856	21	SURE_INCORRECT	21	37	330.009127193
335.502728242	3	65	INCORRECTLY	3.31228818099999	21	SURE_INCORRECT	67	0	335.502728242
341.509316615	3	66	CORRECTLY	1.47195427299994	5	SURE_CORRECT	34	57	341.509316615
346.50642928	3	67	INCORRECTLY	1.73382037900001	21	SURE_INCORRECT	60	0	346.50642928
351.007203233	2	68	CONTROL	0.870792244999848	10	n/a	1000	0	351.007203233
355.011543345	3	69	CORRECTLY	1.38967765400002	5	SURE_CORRECT	22	38	355.011543345
362.523769077	3	70	CORRECTLY	1.19460783700015	21	SURE_INCORRECT	25	44	362.523769077
367.024557144	3	71	INCORRECTLY	1.99553826700003	21	SURE_INCORRECT	71	0	367.024557144
371.078559353	3	72	INCORRECTLY	1.86640972399982	10	MAYBE_INCORRECT	57	0	371.078559353
375.513114952	3	73	CORRECTLY	1.36296905900008	5	SURE_CORRECT	19	35	375.513114952
381.02316671	2	74	CONTROL	0.913281928999822	28	n/a	1000	0	381.02316671
386.020348256	3	75	INCORRECTLY	2.17006480000009	10	MAYBE_INCORRECT	74	0	386.020348256
391.513944593	2	76	CONTROL	1.11687143500012	10	n/a	1000	0	391.513944593
395.518286204	3	77	CORRECTLY	1.53212309199989	10	MAYBE_INCORRECT	17	32	395.518286204
401.011832219	2	78	CONTROL	1.15707140899985	5	n/a	1000	0	401.011832219
405.016197268	3	79	INCORRECTLY	1.81120922800028	21	SURE_INCORRECT	77	0	405.016197268
409.51697218	2	80	CONTROL	0.938825857000211	10	n/a	1000	0	409.51697218
415.506884657	3	81	INCORRECTLY	1.36825438800042	21	SURE_INCORRECT	44	0	415.506884657
421.51345825	3	82	CORRECTLY	2.26972832499996	5	SURE_CORRECT	40	64	421.51345825
426.014208476	3	83	CORRECTLY	2.0350186579999	10	MAYBE_INCORRECT	28	48	426.014208476
430.084746145	3	84	INCORRECTLY	1.39747461200022	10	MAYBE_INCORRECT	50	0	430.084746145
437.01786868	3	85	INCORRECTLY	2.15191328099991	21	SURE_INCORRECT	72	0	437.01786868
443.504298344	3	86	INCORRECTLY	2.08287236300021	10	MAYBE_INCORRECT	69	0	443.504298344
447.574799749	3	87	CORRECTLY	1.21317851900039	5	SURE_CORRECT	18	34	447.574799749
452.505714815	2	88	CONTROL	0.928438907999862	10	n/a	1000	0	452.505714815
455.583511654	2	89	CONTROL	1.07788710599971	28	n/a	1000	0	455.583511654
462.020203956	3	90	INCORRECTLY	2.43423125000027	10	MAYBE_INCORRECT	61	0	462.020203956
466.074208306	2	91	CONTROL	1.18127710999988	21	n/a	1000	0	466.074208306
470.508719873	3	92	INCORRECTLY	1.7682539780003	21	SURE_INCORRECT	73	0	470.508719873
474.562819218	3	93	CORRECTLY	1.66739978999976	5	SURE_CORRECT	29	52	474.562819218
479.510278071	3	94	CORRECTLY	1.53227948599988	5	SURE_CORRECT	20	36	479.510278071
484.50747388	2	95	CONTROL	0.826260952000212	10	n/a	1000	0	484.50747388
489.024694287	3	96	CORRECTLY	1.4016016720002	10	MAYBE_INCORRECT	31	54	489.024694287
493.078706381	3	97	CORRECTLY	1.35948532400016	5	SURE_CORRECT	23	40	493.078706381
498.009679151	3	98	CORRECTLY	1.68736402900004	5	SURE_CORRECT	37	60	498.009679151
502.527057601	3	99	CORRECTLY	2.91146708700035	5	SURE_CORRECT	36	59	502.527057601
506.564408047	2	100	CONTROL	0.871691232999638	10	n/a	1000	0	506.564408047
510.006200551	3	101	INCORRECTLY	1.84172803599995	21	SURE_INCORRECT	54	0	510.006200551
514.076712106	3	102	CORRECTLY	1.37425219700026	21	SURE_INCORRECT	39	63	514.076712106
518.064507164	3	103	CORRECTLY	1.51088796999966	21	SURE_INCORRECT	33	56	518.064507164
522.068849107	3	104	CORRECTLY	1.83261121799978	5	SURE_CORRECT	26	45	522.068849107
