onset	duration	trial_number	trial_type	trial_type_coded	reaction_time	expected_response_coded	response	response_coded	accuracy	accuracy_scrambled	accuracy_task	rec_codes_during_enc	onset_probe	onset_noTriggerAdjust	onset_probe_noTriggerAdjust
0.0158523479999531	2	1	CONTROL	1	1.00323532100015	1	LEFT	5	1	1	0	0	0.0324199069998485	0.0158523479999531	0.0324199069998485
4.51665213999991	2	2	CONTROL	1	1.03490231499995	2	RIGHT	28	1	1	0	0	4.53321577499992	4.51665213999991	4.53321577499992
11.5159919569999	4	3	TASK	2	1.33846477399993	1	LEFT	5	1	0	1	16	12.5088108039999	11.5159919569999	12.5088108039999
19.5081068019999	2	4	CONTROL	1	0.800933155000166	1	LEFT	5	1	1	0	0	19.5246629889998	19.5081068019999	19.5246629889998
22.039837392	4	5	TASK	2	1.72913653899991	2	RIGHT	28	1	0	1	28	23.016069732	22.039837392	23.016069732
38.5039535829999	4	6	TASK	2	1.16797760199984	1	LEFT	5	1	0	1	1	39.51333813	38.5039535829999	39.51333813
49.507678962	2	7	CONTROL	1	1.06054805400004	2	RIGHT	28	1	1	0	0	49.5242457059999	49.507678962	49.5242457059999
56.5234691539999	2	8	CONTROL	1	0.943797483000026	2	RIGHT	28	1	1	0	0	56.5400441469999	56.5234691539999	56.5400441469999
66.0214129819999	4	9	TASK	2	1.50146466100023	2	RIGHT	28	1	0	1	33	67.0142153519998	66.0214129819999	67.0142153519998
70.5221211999999	2	10	CONTROL	1	0.823062027000105	2	RIGHT	28	1	1	0	0	70.5386879589998	70.5221211999999	70.5386879589998
76.015761461	4	11	TASK	2	1.21299155799989	2	RIGHT	28	1	0	1	17	77.0085751829999	76.015761461	77.0085751829999
81.5092832769999	4	12	TASK	2	1.17367118100037	2	RIGHT	28	1	0	1	11	82.5021385479997	81.5092832769999	82.5021385479997
92.5129991199999	4	13	TASK	2	1.08749419600008	1	LEFT	5	1	0	1	8	93.5058466539997	92.5129991199999	93.5058466539997
98.0066128189999	2	14	CONTROL	1	0.774087345000225	1	LEFT	5	1	1	0	0	98.0231131439998	98.0066128189999	98.0231131439998
104.509497084	4	15	TASK	2	1.37984285900029	1	LEFT	5	1	0	1	5	105.50232289	104.509497084	105.50232289
109.010216402	2	16	CONTROL	1	0.986443151000003	1	LEFT	5	1	1	0	0	109.026755791	109.010216402	109.026755791
112.021801633	2	17	CONTROL	1	0.870200530000147	2	RIGHT	28	1	1	0	0	112.038289944	112.021801633	112.038289944
118.508209194	4	18	TASK	2	0.854960382999707	2	RIGHT	28	1	0	1	25	119.51759224	118.508209194	119.51759224
125.01112588	2	19	CONTROL	1	0.667134904999784	1	LEFT	5	1	1	0	0	125.027682879	125.01112588	125.027682879
129.015384815	4	20	TASK	2	1.08572862300025	1	LEFT	5	1	0	1	21	130.008225477	129.015384815	130.008225477
135.005395635	4	21	TASK	2	1.99760627800015	2	RIGHT	28	1	0	1	35	136.014746697	135.005395635	136.014746697
151.006236697	4	22	TASK	2	1.53437130100019	1	LEFT	5	1	0	1	4	152.015576271	151.006236697	152.015576271
155.523474183	4	23	TASK	2	1.27938784400021	2	RIGHT	28	1	0	1	34	156.516323701	155.523474183	156.516323701
161.017138744	2	24	CONTROL	1	0.623607642000024	2	RIGHT	28	1	1	0	0	161.033611943	161.017138744	161.033611943
165.021450862	2	25	CONTROL	1	0.488708567999765	1	LEFT	5	1	1	0	0	165.037988841	165.021450862	165.037988841
174.519299121	2	26	CONTROL	1	0.605079307000324	2	RIGHT	28	1	1	0	0	174.535917491	174.519299121	174.535917491
179.516463794	2	27	CONTROL	1	1.05025086100022	2	RIGHT	28	1	1	0	0	179.533127483	179.516463794	179.533127483
182.048180233	4	28	TASK	2	1.14639157400006	2	RIGHT	28	1	0	1	15	183.007913696	182.048180233	183.007913696
189.014405706	2	29	CONTROL	1	0.665820961999998	2	RIGHT	28	1	1	0	0	189.030945071	189.014405706	189.030945071
193.018748707	4	30	TASK	2	1.14788978700017	2	RIGHT	28	1	0	1	36	194.011563552	193.018748707	194.011563552
202.020242405	4	31	TASK	2	0.853825399000016	2	RIGHT	28	1	0	1	14	203.013066692	202.020242405	203.013066692
209.516030634	4	32	TASK	2	1.38464079300002	1	LEFT	5	1	0	1	77	210.508789416	209.516030634	210.508789416
216.018943679	2	33	CONTROL	1	0.842247697999937	2	RIGHT	28	1	1	0	0	216.035479003	216.018943679	216.035479003
220.519717861	4	34	TASK	2	1.00868275899984	1	LEFT	5	1	0	1	87	221.512530102	220.519717861	221.512530102
226.013213296	4	35	TASK	2	0.739563561000068	1	LEFT	5	1	0	1	73	227.006064647	226.013213296	227.006064647
240.011948988	4	36	TASK	2	0.783985956999913	1	LEFT	5	1	0	1	94	241.004683905	240.011948988	241.004683905
254.010602344	4	37	TASK	2	1.43546847700009	1	LEFT	5	1	0	1	64	255.00337433	254.010602344	255.00337433
261.506364419	4	38	TASK	2	0.948121988999901	2	RIGHT	28	1	0	1	69	262.515669444	261.506364419	262.515669444
280.022237923	2	39	CONTROL	1	1.78611733000025	1	LEFT	5	1	1	0	0	280.038818392	280.022237923	280.038818392
283.017234087	4	40	TASK	2	0.639531399999669	2	RIGHT	28	1	0	1	97	284.010074125	283.017234087	284.010074125
292.018736611	4	41	TASK	2	1.2761262490003	1	LEFT	5	1	0	1	63	293.011611675	292.018736611	293.011611675
297.512340311	2	42	CONTROL	1	0.544294440000158	1	LEFT	5	1	1	0	0	297.528923623	297.512340311	297.528923623
305.504508976	2	43	CONTROL	1	0.538583669999753	1	LEFT	5	1	1	0	0	305.520989337	305.504508976	305.520989337
316.524669474	4	44	TASK	2	0.700771072999942	1	LEFT	5	1	0	1	70	317.517528919	316.524669474	317.517528919
324.020474027	4	45	TASK	2	1.12744069100017	1	LEFT	5	1	0	1	104	325.013243206	324.020474027	325.013243206
331.019740793	2	46	CONTROL	1	0.586841521000224	1	LEFT	5	1	1	0	0	331.036329382	331.019740793	331.036329382
336.513391645	4	47	TASK	2	0.882969341999797	2	RIGHT	28	1	0	1	45	337.50612114	336.513391645	337.50612114
347.004103026	4	48	TASK	2	0.696120465000149	2	RIGHT	28	1	0	1	83	348.013453504	347.004103026	348.013453504
358.007763557	2	49	CONTROL	1	0.930930824999905	1	LEFT	5	1	1	0	0	358.024298254	358.007763557	358.024298254
363.021416454	2	50	CONTROL	1	0.608567757999936	2	RIGHT	28	1	1	0	0	363.037975179	363.021416454	363.037975179
370.517223439	2	51	CONTROL	1	0.594789488999595	2	RIGHT	28	1	1	0	0	370.533722323	370.517223439	370.533722323
376.52366227	4	52	TASK	2	1.55832717799967	2	RIGHT	28	1	0	1	93	377.51652506	376.52366227	377.51652506
383.506471254	4	53	TASK	2	0.882659670000066	1	LEFT	5	1	0	1	46	384.515858293	383.506471254	384.515858293
390.522401146	4	54	TASK	2	0.905480116000035	2	RIGHT	28	1	0	1	96	391.515176954	390.522401146	391.515176954
405.017503246	4	55	TASK	2	0.599522297999556	2	RIGHT	28	1	0	1	49	406.010270804	405.017503246	406.010270804
412.016754603	4	56	TASK	2	0.684154182999919	2	RIGHT	28	1	0	1	103	413.00964683	412.016754603	413.00964683
418.519690825	4	57	TASK	2	0.869918042999871	2	RIGHT	28	1	0	1	66	419.512613797	418.519690825	419.512613797
429.523365033	4	58	TASK	2	0.823614692999854	2	RIGHT	28	1	0	1	48	430.516223926	429.523365033	430.516223926
443.522051663	4	59	TASK	2	0.529657078999662	2	RIGHT	28	1	0	1	99	444.514799662	443.522051663	444.514799662
448.022885638	4	60	TASK	2	1.30031816000019	1	LEFT	5	1	0	1	98	449.015635866	448.022885638	449.015635866
453.019951883	4	61	TASK	2	0.515546309999991	2	RIGHT	28	1	0	1	62	454.012776738	453.019951883	454.012776738
459.506345154	2	62	CONTROL	1	0.560649756999737	1	LEFT	5	1	1	0	0	459.522872957	459.506345154	459.522872957
465.016449506	4	63	TASK	2	1.04323801400005	1	LEFT	5	1	0	1	102	466.009273766	465.016449506	466.009273766
473.521540541	4	64	TASK	2	1.32812730600017	2	RIGHT	28	1	0	1	82	474.514373388	473.521540541	474.514373388
