onset	duration	trial_number	trial_type	trial_type_coded	reaction_time	expected_response_coded	response	response_coded	accuracy	accuracy_scrambled	accuracy_task	rec_codes_during_enc	onset_probe	onset_noTriggerAdjust	onset_probe_noTriggerAdjust
0.0133815625954412	2	1	CONTROL	1	0.838570073315623	1	LEFT	5	1	1	0	0	0.0465793536845922	0.0133815625954412	0.0465793536845922
4.52296385768432	2	2	CONTROL	1	0.689664533425002	2	RIGHT	28	1	1	0	0	4.53956254057493	4.52296385768432	4.53956254057493
11.5194143287731	4	3	TASK	2	1.04068215962388	1	LEFT	5	1	0	1	16	12.5141885023763	11.5194143287731	12.5141885023763
19.5270521415059	2	4	CONTROL	1	0.675075387336165	1	LEFT	5	1	1	0	0	19.5437800666641	19.5270521415059	19.5437800666641
22.0637051855952	4	5	TASK	2	1.17047134340464	2	RIGHT	28	1	0	1	28	23.0087004455954	22.0637051855952	23.0087004455954
38.5102971296847	4	6	TASK	2	0.931030908425328	1	LEFT	5	1	0	1	1	39.505073912575	38.5102971296847	39.505073912575
49.5188287535952	2	7	CONTROL	1	0.618140271493758	2	RIGHT	28	1	1	0	0	49.5354108845063	49.5188287535952	49.5354108845063
56.5153477175954	2	8	CONTROL	1	1.00235173040483	2	RIGHT	28	1	1	0	0	56.5318352835952	56.5153477175954	56.5318352835952
66.0152141645954	4	9	TASK	2	1.01586625731579	2	RIGHT	28	1	0	1	33	67.0099039206843	66.0152141645954	67.0099039206843
70.5246890725953	2	10	CONTROL	1	1.1062262373157	2	RIGHT	28	1	1	0	0	70.5413250406846	70.5246890725953	70.5413250406846
76.0124105346845	4	11	TASK	2	1.27091322040496	2	RIGHT	28	1	0	1	17	77.0072300685952	76.0124105346845	77.0072300685952
81.5166978306847	4	12	TASK	2	1.47067110240459	2	RIGHT	28	1	0	1	11	82.5114815925954	81.5166978306847	82.5114815925954
92.5087890315954	4	13	TASK	2	0.848643260493645	1	LEFT	5	1	0	1	8	93.5200382165062	92.5087890315954	93.5200382165062
98.0130867226844	2	14	CONTROL	1	0.661308066405127	1	LEFT	5	1	1	0	0	98.0296579585952	98.0130867226844	98.0296579585952
104.512036956684	4	15	TASK	2	0.762969890493878	1	LEFT	5	1	0	1	5	105.506809268506	104.512036956684	105.506809268506
109.021578574595	2	16	CONTROL	1	0.630567817603151	1	LEFT	5	1	1	0	0	109.038233234397	109.021578574595	109.038233234397
112.022459156684	2	17	CONTROL	1	0.57538213940461	2	RIGHT	28	1	1	0	0	112.039065833595	112.022459156684	112.039065833595
118.521561432595	4	18	TASK	2	1.02274402140483	2	RIGHT	28	1	0	1	25	119.516270881595	118.521561432595	119.516270881595
125.020502491506	2	19	CONTROL	1	0.560025579405192	1	LEFT	5	1	1	0	0	125.037092058595	125.020502491506	125.037092058595
129.016189488596	4	20	TASK	2	0.595641441226689	1	LEFT	5	1	0	1	21	130.010933276773	129.016189488596	130.010933276773
135.017844188685	4	21	TASK	2	0.671136135315464	2	RIGHT	28	1	0	1	35	136.012528134685	135.017844188685	136.012528134685
151.016712182684	4	22	TASK	2	0.718845683603377	1	LEFT	5	1	0	1	4	152.011492120397	151.016712182684	152.011492120397
155.526241268595	4	23	TASK	2	1.16282062831533	2	RIGHT	28	1	0	1	34	156.521036328685	155.526241268595	156.521036328685
161.014039481773	2	24	CONTROL	1	0.991340123493956	2	RIGHT	28	1	1	0	0	161.030524171506	161.014039481773	161.030524171506
165.009608197664	2	25	CONTROL	1	0.545406414335957	1	LEFT	5	1	1	0	0	165.026246822664	165.009608197664	165.026246822664
174.509595617288	2	26	CONTROL	1	0.523656305315399	2	RIGHT	28	1	1	0	0	174.526069139685	174.509595617288	174.526069139685
179.516347765595	2	27	CONTROL	1	0.487358647712426	2	RIGHT	28	1	1	0	0	179.533044050288	179.516347765595	179.533044050288
182.053051815376	4	28	TASK	2	0.566585410494099	2	RIGHT	28	1	0	1	15	183.014564793506	182.053051815376	183.014564793506
189.016235522595	2	29	CONTROL	1	0.577408178404767	2	RIGHT	28	1	1	0	0	189.032877444595	189.016235522595	189.032877444595
193.011908927288	4	30	TASK	2	0.752518606712783	2	RIGHT	28	1	0	1	36	194.006656676288	193.011908927288	194.006656676288
202.014329043684	4	31	TASK	2	0.81595613671243	2	RIGHT	28	1	0	1	14	203.009188282288	202.014329043684	203.009188282288
209.508205751685	4	32	TASK	2	0.770559140404657	1	LEFT	5	1	0	1	77	210.519457799595	209.508205751685	210.519457799595
216.007184530685	2	33	CONTROL	1	0.776560269404854	2	RIGHT	28	1	1	0	0	216.023738465595	216.007184530685	216.023738465595
220.516757489595	4	34	TASK	2	0.631176775404583	1	LEFT	5	1	0	1	87	221.511516037595	220.516757489595	221.511516037595
226.021034963595	4	35	TASK	2	0.823888006315883	1	LEFT	5	1	0	1	73	227.015755461684	226.021034963595	227.015755461684
240.013902811773	4	36	TASK	2	0.731909558315238	1	LEFT	5	1	0	1	94	241.008596152685	240.013902811773	241.008596152685
254.023310443685	4	37	TASK	2	0.858434609315736	1	LEFT	5	1	0	1	64	255.018071689684	254.023310443685	255.018071689684
261.517072412685	4	38	TASK	2	0.727838145404803	2	RIGHT	28	1	0	1	69	262.511904679595	261.517072412685	262.511904679595
280.019527914685	2	39	CONTROL	1	0.694128696692133	1	LEFT	5	1	1	0	0	280.036105314308	280.019527914685	280.036105314308
283.020314915595	4	40	TASK	2	0.860533784315521	2	RIGHT	28	1	0	1	97	284.015055692685	283.020314915595	284.015055692685
292.022846108684	4	41	TASK	2	0.786448984405069	1	LEFT	5	1	0	1	63	293.017596059595	292.022846108684	293.017596059595
297.527174634595	2	42	CONTROL	1	0.900529085712151	1	LEFT	5	1	1	0	0	297.543784308288	297.527174634595	297.543784308288
305.518343752684	2	43	CONTROL	1	0.57766323051419	1	LEFT	5	1	1	0	0	305.534957174486	305.518343752684	305.534957174486
316.526904348596	4	44	TASK	2	0.596004312405057	1	LEFT	5	1	0	1	70	317.521656163595	316.526904348596	317.521656163595
324.020675325684	4	45	TASK	2	0.856269634315595	1	LEFT	5	1	0	1	104	325.015443540684	324.020675325684	325.015443540684
331.017153097685	2	46	CONTROL	1	0.520530778315788	1	LEFT	5	1	1	0	0	331.033702189684	331.017153097685	331.033702189684
336.521453189685	4	47	TASK	2	0.588210685226841	2	RIGHT	28	1	0	1	45	337.516185268773	336.521453189685	337.516185268773
347.016081524685	4	48	TASK	2	0.942877971692724	2	RIGHT	28	1	0	1	83	348.010824714308	347.016081524685	348.010824714308
358.008049937506	2	49	CONTROL	1	0.594796297425546	1	LEFT	5	1	1	0	0	358.024667490575	358.008049937506	358.024667490575
363.015014189595	2	50	CONTROL	1	0.621616574315794	2	RIGHT	28	1	1	0	0	363.031586564684	363.015014189595	363.031586564684
370.508807845595	2	51	CONTROL	1	0.463849355137882	2	RIGHT	28	1	1	0	0	370.525414736862	370.508807845595	370.525414736862
376.526981759417	4	52	TASK	2	0.556379011404715	2	RIGHT	28	1	0	1	93	377.521779644595	376.526981759417	377.521779644595
383.523432606773	4	53	TASK	2	1.05913902940483	1	LEFT	5	1	0	1	46	384.518235045595	383.523432606773	384.518235045595
390.519851172684	4	54	TASK	2	0.942882418404679	2	RIGHT	28	1	0	1	96	391.514630354595	390.519851172684	391.514630354595
405.010071491684	4	55	TASK	2	0.697051515404837	2	RIGHT	28	1	0	1	49	406.021459285595	405.010071491684	406.021459285595
412.006530094684	4	56	TASK	2	1.10414299140484	2	RIGHT	28	1	0	1	103	413.017809937595	412.006530094684	413.017809937595
418.505562114952	4	57	TASK	2	0.778415204405064	2	RIGHT	28	1	0	1	66	419.516871545595	418.505562114952	419.516871545595
429.514178864685	4	58	TASK	2	0.747694542315458	2	RIGHT	28	1	0	1	48	430.508882070685	429.514178864685	430.508882070685
443.523577875685	4	59	TASK	2	1.06323615440488	2	RIGHT	28	1	0	1	99	444.518327577595	443.523577875685	444.518327577595
448.033075888684	4	60	TASK	2	1.70114453231554	1	LEFT	5	1	0	1	98	449.011323292685	448.033075888684	449.011323292685
453.023475643684	4	61	TASK	2	0.92601935540506	2	RIGHT	28	1	0	1	62	454.018193728595	453.023475643684	454.018193728595
459.505977323773	2	62	CONTROL	1	0.622243579712176	1	LEFT	5	1	1	0	0	459.522554827288	459.505977323773	459.522554827288
465.010310015288	4	63	TASK	2	0.934870420623611	1	LEFT	5	1	0	1	102	466.005063897377	465.010310015288	466.005063897377
473.515362825684	4	64	TASK	2	1.02632578262364	2	RIGHT	28	1	0	1	82	474.510167465377	473.515362825684	474.510167465377
